"20-30mM-CB30mM - RawData"
"Wavelength nm."	"Abs."
300.00	0.1420
301.00	0.1436
302.00	0.1452
303.00	0.1470
304.00	0.1483
305.00	0.1495
306.00	0.1506
307.00	0.1519
308.00	0.1538
309.00	0.1555
310.00	0.1569
311.00	0.1582
312.00	0.1599
313.00	0.1615
314.00	0.1630
315.00	0.1652
316.00	0.1674
317.00	0.1691
318.00	0.1707
319.00	0.1726
320.00	0.1740
321.00	0.1754
322.00	0.1768
323.00	0.1785
324.00	0.1801
325.00	0.1817
326.00	0.1834
327.00	0.1849
328.00	0.1863
329.00	0.1874
330.00	0.1885
331.00	0.1893
332.00	0.1899
333.00	0.1913
334.00	0.1930
335.00	0.1946
336.00	0.1966
337.00	0.1989
338.00	0.2004
339.00	0.2019
340.00	0.2036
341.00	0.2051
342.00	0.2065
343.00	0.2081
344.00	0.2094
345.00	0.2109
346.00	0.2122
347.00	0.2137
348.00	0.2148
349.00	0.2161
350.00	0.2171
351.00	0.2183
352.00	0.2195
353.00	0.2208
354.00	0.2219
355.00	0.2229
356.00	0.2240
357.00	0.2249
358.00	0.2260
359.00	0.2267
360.00	0.2276
361.00	0.2283
362.00	0.2285
363.00	0.2297
364.00	0.2311
365.00	0.2328
366.00	0.2346
367.00	0.2367
368.00	0.2378
369.00	0.2393
370.00	0.2409
371.00	0.2430
372.00	0.2441
373.00	0.2456
374.00	0.2468
375.00	0.2479
376.00	0.2484
377.00	0.2499
378.00	0.2513
379.00	0.2527
380.00	0.2543
381.00	0.2560
382.00	0.2576
383.00	0.2598
384.00	0.2621
385.00	0.2643
386.00	0.2667
387.00	0.2690
388.00	0.2707
389.00	0.2723
390.00	0.2738
391.00	0.2756
392.00	0.2775
393.00	0.2794
394.00	0.2812
395.00	0.2830
396.00	0.2843
397.00	0.2856
398.00	0.2867
399.00	0.2879
400.00	0.2893
401.00	0.2908
402.00	0.2923
403.00	0.2942
404.00	0.2961
405.00	0.2977
406.00	0.2995
407.00	0.3013
408.00	0.3030
409.00	0.3046
410.00	0.3063
411.00	0.3077
412.00	0.3090
413.00	0.3100
414.00	0.3108
415.00	0.3114
416.00	0.3118
417.00	0.3122
418.00	0.3123
419.00	0.3122
420.00	0.3118
421.00	0.3112
422.00	0.3104
423.00	0.3094
424.00	0.3082
425.00	0.3069
426.00	0.3058
427.00	0.3045
428.00	0.3033
429.00	0.3021
430.00	0.3010
431.00	0.3001
432.00	0.2992
433.00	0.2984
434.00	0.2976
435.00	0.2969
436.00	0.2960
437.00	0.2950
438.00	0.2938
439.00	0.2926
440.00	0.2913
441.00	0.2899
442.00	0.2886
443.00	0.2874
444.00	0.2862
445.00	0.2850
446.00	0.2840
447.00	0.2830
448.00	0.2821
449.00	0.2813
450.00	0.2807
451.00	0.2803
452.00	0.2799
453.00	0.2797
454.00	0.2796
455.00	0.2796
456.00	0.2796
457.00	0.2796
458.00	0.2798
459.00	0.2801
460.00	0.2806
461.00	0.2810
462.00	0.2817
463.00	0.2821
464.00	0.2828
465.00	0.2833
466.00	0.2839
467.00	0.2842
468.00	0.2848
469.00	0.2851
470.00	0.2854
471.00	0.2857
472.00	0.2861
473.00	0.2865
474.00	0.2869
475.00	0.2875
476.00	0.2882
477.00	0.2890
478.00	0.2895
479.00	0.2900
480.00	0.2903
481.00	0.2907
482.00	0.2910
483.00	0.2914
484.00	0.2918
485.00	0.2921
486.00	0.2924
487.00	0.2926
488.00	0.2928
489.00	0.2930
490.00	0.2932
491.00	0.2934
492.00	0.2936
493.00	0.2938
494.00	0.2941
495.00	0.2943
496.00	0.2944
497.00	0.2945
498.00	0.2946
499.00	0.2948
500.00	0.2948
501.00	0.2949
502.00	0.2950
503.00	0.2950
504.00	0.2949
505.00	0.2950
506.00	0.2948
507.00	0.2945
508.00	0.2944
509.00	0.2942
510.00	0.2939
511.00	0.2939
512.00	0.2937
513.00	0.2932
514.00	0.2926
515.00	0.2919
516.00	0.2913
517.00	0.2907
518.00	0.2901
519.00	0.2896
520.00	0.2892
521.00	0.2885
522.00	0.2879
523.00	0.2872
524.00	0.2863
525.00	0.2853
526.00	0.2843
527.00	0.2833
528.00	0.2826
529.00	0.2822
530.00	0.2821
531.00	0.2812
532.00	0.2803
533.00	0.2792
534.00	0.2780
535.00	0.2765
536.00	0.2758
537.00	0.2751
538.00	0.2744
539.00	0.2736
540.00	0.2727
541.00	0.2719
542.00	0.2712
543.00	0.2704
544.00	0.2698
545.00	0.2688
546.00	0.2677
547.00	0.2666
548.00	0.2658
549.00	0.2649
550.00	0.2642
551.00	0.2635
552.00	0.2627
553.00	0.2618
554.00	0.2609
555.00	0.2599
556.00	0.2589
557.00	0.2580
558.00	0.2570
559.00	0.2561
560.00	0.2552
561.00	0.2541
562.00	0.2533
563.00	0.2525
564.00	0.2518
565.00	0.2510
566.00	0.2502
567.00	0.2493
568.00	0.2482
569.00	0.2469
570.00	0.2459
571.00	0.2451
572.00	0.2448
573.00	0.2443
574.00	0.2434
575.00	0.2423
576.00	0.2408
577.00	0.2392
578.00	0.2377
579.00	0.2366
580.00	0.2355
581.00	0.2345
582.00	0.2334
583.00	0.2322
584.00	0.2310
585.00	0.2299
586.00	0.2287
587.00	0.2275
588.00	0.2263
589.00	0.2251
590.00	0.2238
591.00	0.2225
592.00	0.2212
593.00	0.2200
594.00	0.2188
595.00	0.2177
596.00	0.2163
597.00	0.2149
598.00	0.2135
599.00	0.2123
600.00	0.2110
601.00	0.2100
602.00	0.2089
603.00	0.2078
604.00	0.2066
605.00	0.2055
606.00	0.2042
607.00	0.2029
608.00	0.2018
609.00	0.2009
610.00	0.2002
611.00	0.1993
612.00	0.1984
613.00	0.1971
614.00	0.1958
615.00	0.1947
616.00	0.1940
617.00	0.1935
618.00	0.1928
619.00	0.1920
620.00	0.1909
621.00	0.1901
622.00	0.1894
623.00	0.1891
624.00	0.1886
625.00	0.1879
626.00	0.1869
627.00	0.1859
628.00	0.1853
629.00	0.1854
630.00	0.1855
631.00	0.1854
632.00	0.1848
633.00	0.1839
634.00	0.1828
635.00	0.1818
636.00	0.1812
637.00	0.1811
638.00	0.1810
639.00	0.1807
640.00	0.1804
641.00	0.1801
642.00	0.1799
643.00	0.1797
644.00	0.1796
645.00	0.1795
646.00	0.1793
647.00	0.1792
648.00	0.1790
649.00	0.1789
650.00	0.1788
651.00	0.1790
652.00	0.1791
653.00	0.1793
654.00	0.1792
655.00	0.1792
656.00	0.1790
657.00	0.1790
658.00	0.1790
659.00	0.1793
660.00	0.1793
661.00	0.1795
662.00	0.1795
663.00	0.1797
664.00	0.1797
665.00	0.1800
666.00	0.1803
667.00	0.1804
668.00	0.1804
669.00	0.1805
670.00	0.1816
671.00	0.1819
672.00	0.1824
673.00	0.1829
674.00	0.1832
675.00	0.1824
676.00	0.1824
677.00	0.1824
678.00	0.1824
679.00	0.1826
680.00	0.1830
681.00	0.1833
682.00	0.1836
683.00	0.1841
684.00	0.1844
685.00	0.1845
686.00	0.1846
687.00	0.1850
688.00	0.1849
689.00	0.1851
690.00	0.1851
691.00	0.1855
692.00	0.1854
693.00	0.1855
694.00	0.1855
695.00	0.1860
696.00	0.1858
697.00	0.1859
698.00	0.1859
699.00	0.1860
700.00	0.1860
701.00	0.1864
702.00	0.1866
703.00	0.1868
704.00	0.1869
705.00	0.1869
706.00	0.1869
707.00	0.1870
708.00	0.1873
709.00	0.1875
710.00	0.1877
711.00	0.1877
712.00	0.1880
713.00	0.1878
714.00	0.1882
715.00	0.1883
716.00	0.1883
717.00	0.1881
718.00	0.1881
719.00	0.1882
720.00	0.1886
721.00	0.1889
722.00	0.1891
723.00	0.1892
724.00	0.1884
725.00	0.1883
726.00	0.1877
727.00	0.1880
728.00	0.1882
729.00	0.1890
730.00	0.1890
731.00	0.1900
732.00	0.1902
733.00	0.1908
734.00	0.1912
735.00	0.1915
736.00	0.1916
737.00	0.1919
738.00	0.1923
739.00	0.1929
740.00	0.1936
741.00	0.1943
742.00	0.1946
743.00	0.1950
744.00	0.1952
745.00	0.1957
746.00	0.1963
747.00	0.1967
748.00	0.1976
749.00	0.1981
750.00	0.1986
751.00	0.1990
752.00	0.1996
753.00	0.1996
754.00	0.2000
755.00	0.2002
756.00	0.2004
757.00	0.2008
758.00	0.2014
759.00	0.2018
760.00	0.2025
761.00	0.2032
762.00	0.2039
763.00	0.2040
764.00	0.2044
765.00	0.2045
766.00	0.2046
767.00	0.2046
768.00	0.2047
769.00	0.2045
770.00	0.2042
771.00	0.2039
772.00	0.2039
773.00	0.2038
774.00	0.2033
775.00	0.2027
776.00	0.2025
777.00	0.2023
778.00	0.2019
779.00	0.2014
780.00	0.2010
781.00	0.2000
782.00	0.1989
783.00	0.1981
784.00	0.1982
785.00	0.1980
786.00	0.1978
787.00	0.1974
788.00	0.1973
789.00	0.1969
790.00	0.1961
791.00	0.1954
792.00	0.1947
793.00	0.1936
794.00	0.1924
795.00	0.1914
796.00	0.1902
797.00	0.1887
798.00	0.1874
799.00	0.1863
800.00	0.1851
801.00	0.1841
802.00	0.1835
803.00	0.1826
804.00	0.1815
805.00	0.1807
806.00	0.1800
807.00	0.1792
808.00	0.1786
809.00	0.1781
810.00	0.1776
811.00	0.1770
812.00	0.1765
813.00	0.1754
814.00	0.1753
815.00	0.1747
816.00	0.1742
817.00	0.1739
818.00	0.1742
819.00	0.1738
820.00	0.1737
821.00	0.1735
822.00	0.1735
823.00	0.1734
824.00	0.1731
825.00	0.1732
826.00	0.1731
827.00	0.1731
828.00	0.1732
829.00	0.1734
830.00	0.1734
831.00	0.1740
832.00	0.1742
833.00	0.1744
834.00	0.1746
835.00	0.1748
836.00	0.1750
837.00	0.1755
838.00	0.1757
839.00	0.1760
840.00	0.1765
841.00	0.1772
842.00	0.1776
843.00	0.1783
844.00	0.1792
845.00	0.1799
846.00	0.1807
847.00	0.1815
848.00	0.1821
849.00	0.1826
850.00	0.1832
851.00	0.1837
852.00	0.1843
853.00	0.1847
854.00	0.1850
855.00	0.1853
856.00	0.1854
857.00	0.1855
858.00	0.1855
859.00	0.1856
860.00	0.1857
861.00	0.1856
862.00	0.1856
863.00	0.1856
864.00	0.1857
865.00	0.1856
866.00	0.1855
867.00	0.1856
868.00	0.1857
869.00	0.1853
870.00	0.1852
871.00	0.1850
872.00	0.1847
873.00	0.1844
874.00	0.1845
875.00	0.1842
876.00	0.1839
877.00	0.1836
878.00	0.1828
879.00	0.1821
880.00	0.1813
881.00	0.1804
882.00	0.1795
883.00	0.1787
884.00	0.1778
885.00	0.1768
886.00	0.1758
887.00	0.1747
888.00	0.1735
889.00	0.1723
890.00	0.1710
891.00	0.1699
892.00	0.1687
893.00	0.1676
894.00	0.1666
895.00	0.1655
896.00	0.1645
897.00	0.1634
898.00	0.1624
899.00	0.1614
900.00	0.1603
901.00	0.1591
902.00	0.1580
903.00	0.1569
904.00	0.1559
905.00	0.1551
906.00	0.1542
907.00	0.1533
908.00	0.1525
909.00	0.1514
910.00	0.1504
911.00	0.1494
912.00	0.1484
913.00	0.1474
914.00	0.1463
915.00	0.1454
916.00	0.1445
917.00	0.1437
918.00	0.1430
919.00	0.1424
920.00	0.1416
921.00	0.1408
922.00	0.1397
923.00	0.1387
924.00	0.1376
925.00	0.1367
926.00	0.1358
927.00	0.1351
928.00	0.1343
929.00	0.1336
930.00	0.1329
931.00	0.1321
932.00	0.1315
933.00	0.1307
934.00	0.1300
935.00	0.1292
936.00	0.1286
937.00	0.1282
938.00	0.1275
939.00	0.1268
940.00	0.1261
941.00	0.1252
942.00	0.1241
943.00	0.1233
944.00	0.1225
945.00	0.1217
946.00	0.1208
947.00	0.1200
948.00	0.1195
949.00	0.1188
950.00	0.1182
951.00	0.1177
952.00	0.1172
953.00	0.1163
954.00	0.1155
955.00	0.1149
956.00	0.1141
957.00	0.1134
958.00	0.1126
959.00	0.1120
960.00	0.1114
961.00	0.1107
962.00	0.1101
963.00	0.1097
964.00	0.1093
965.00	0.1084
966.00	0.1078
967.00	0.1073
968.00	0.1063
969.00	0.1056
970.00	0.1053
971.00	0.1047
972.00	0.1039
973.00	0.1034
974.00	0.1027
975.00	0.1021
976.00	0.1014
977.00	0.1008
978.00	0.1001
979.00	0.0998
980.00	0.0990
981.00	0.0984
982.00	0.0978
983.00	0.0971
984.00	0.0963
985.00	0.0959
986.00	0.0955
987.00	0.0948
988.00	0.0945
989.00	0.0938
990.00	0.0933
991.00	0.0927
992.00	0.0921
993.00	0.0916
994.00	0.0913
995.00	0.0907
996.00	0.0902
997.00	0.0896
998.00	0.0888
999.00	0.0881
1000.00	0.0874
1001.00	0.0867
1002.00	0.0863
1003.00	0.0859
1004.00	0.0855
1005.00	0.0850
1006.00	0.0846
1007.00	0.0841
1008.00	0.0836
1009.00	0.0830
1010.00	0.0825
1011.00	0.0820
1012.00	0.0814
1013.00	0.0810
1014.00	0.0803
1015.00	0.0798
1016.00	0.0793
1017.00	0.0789
1018.00	0.0783
1019.00	0.0780
1020.00	0.0776
1021.00	0.0772
1022.00	0.0767
1023.00	0.0763
1024.00	0.0760
1025.00	0.0753
1026.00	0.0750
1027.00	0.0745
1028.00	0.0742
1029.00	0.0733
1030.00	0.0731
1031.00	0.0727
1032.00	0.0721
1033.00	0.0716
1034.00	0.0715
1035.00	0.0710
1036.00	0.0704
1037.00	0.0699
1038.00	0.0695
1039.00	0.0691
1040.00	0.0688
1041.00	0.0686
1042.00	0.0684
1043.00	0.0681
1044.00	0.0673
1045.00	0.0665
1046.00	0.0660
1047.00	0.0656
1048.00	0.0651
1049.00	0.0651
1050.00	0.0650
1051.00	0.0646
1052.00	0.0642
1053.00	0.0639
1054.00	0.0635
1055.00	0.0633
1056.00	0.0630
1057.00	0.0630
1058.00	0.0628
1059.00	0.0624
1060.00	0.0621
1061.00	0.0618
1062.00	0.0611
1063.00	0.0607
1064.00	0.0605
1065.00	0.0603
1066.00	0.0599
1067.00	0.0599
1068.00	0.0598
1069.00	0.0594
1070.00	0.0591
1071.00	0.0590
1072.00	0.0584
1073.00	0.0580
1074.00	0.0578
1075.00	0.0572
1076.00	0.0570
1077.00	0.0568
1078.00	0.0565
1079.00	0.0564
1080.00	0.0565
1081.00	0.0561
1082.00	0.0559
1083.00	0.0558
1084.00	0.0556
1085.00	0.0551
1086.00	0.0550
1087.00	0.0548
1088.00	0.0545
1089.00	0.0543
1090.00	0.0542
1091.00	0.0541
1092.00	0.0539
1093.00	0.0535
1094.00	0.0532
1095.00	0.0530
1096.00	0.0527
1097.00	0.0525
1098.00	0.0526
1099.00	0.0527
1100.00	0.0528
1101.00	0.0526
1102.00	0.0524
1103.00	0.0522
1104.00	0.0517
1105.00	0.0515
1106.00	0.0514
1107.00	0.0511
1108.00	0.0509
1109.00	0.0507
1110.00	0.0504
1111.00	0.0503
1112.00	0.0502
1113.00	0.0501
1114.00	0.0502
1115.00	0.0498
1116.00	0.0496
1117.00	0.0493
1118.00	0.0492
1119.00	0.0490
1120.00	0.0490
1121.00	0.0489
1122.00	0.0490
1123.00	0.0488
1124.00	0.0488
1125.00	0.0488
1126.00	0.0488
1127.00	0.0487
1128.00	0.0485
1129.00	0.0484
1130.00	0.0482
1131.00	0.0480
1132.00	0.0479
1133.00	0.0479
1134.00	0.0478
1135.00	0.0478
1136.00	0.0479
1137.00	0.0479
1138.00	0.0480
1139.00	0.0478
1140.00	0.0477
1141.00	0.0475
1142.00	0.0472
1143.00	0.0470
1144.00	0.0470
1145.00	0.0467
1146.00	0.0468
1147.00	0.0470
1148.00	0.0471
1149.00	0.0471
1150.00	0.0473
1151.00	0.0471
1152.00	0.0471
1153.00	0.0469
1154.00	0.0469
1155.00	0.0469
1156.00	0.0468
1157.00	0.0467
1158.00	0.0466
1159.00	0.0467
1160.00	0.0466
1161.00	0.0466
1162.00	0.0464
1163.00	0.0463
1164.00	0.0462
1165.00	0.0462
1166.00	0.0462
1167.00	0.0459
1168.00	0.0456
1169.00	0.0456
1170.00	0.0458
1171.00	0.0458
1172.00	0.0460
1173.00	0.0465
1174.00	0.0463
1175.00	0.0461
1176.00	0.0460
1177.00	0.0462
1178.00	0.0460
1179.00	0.0462
1180.00	0.0462
1181.00	0.0463
1182.00	0.0461
1183.00	0.0463
1184.00	0.0464
1185.00	0.0462
1186.00	0.0461
1187.00	0.0462
1188.00	0.0461
1189.00	0.0459
1190.00	0.0461
1191.00	0.0461
1192.00	0.0461
1193.00	0.0460
1194.00	0.0461
1195.00	0.0463
1196.00	0.0461
1197.00	0.0463
1198.00	0.0460
1199.00	0.0459
1200.00	0.0458
1201.00	0.0460
1202.00	0.0460
1203.00	0.0467
1204.00	0.0470
1205.00	0.0470
1206.00	0.0470
1207.00	0.0468
1208.00	0.0466
1209.00	0.0464
1210.00	0.0464
1211.00	0.0464
1212.00	0.0467
1213.00	0.0465
1214.00	0.0461
1215.00	0.0460
1216.00	0.0460
1217.00	0.0460
1218.00	0.0462
1219.00	0.0466
1220.00	0.0467
1221.00	0.0466
1222.00	0.0465
1223.00	0.0467
1224.00	0.0468
1225.00	0.0470
1226.00	0.0471
1227.00	0.0470
1228.00	0.0470
1229.00	0.0469
1230.00	0.0469
1231.00	0.0468
1232.00	0.0470
1233.00	0.0471
1234.00	0.0473
1235.00	0.0474
1236.00	0.0476
1237.00	0.0475
1238.00	0.0475
1239.00	0.0477
1240.00	0.0474
1241.00	0.0476
1242.00	0.0478
1243.00	0.0476
1244.00	0.0476
1245.00	0.0482
1246.00	0.0482
1247.00	0.0482
1248.00	0.0482
1249.00	0.0483
1250.00	0.0479
1251.00	0.0479
1252.00	0.0481
1253.00	0.0481
1254.00	0.0480
1255.00	0.0480
1256.00	0.0479
1257.00	0.0480
1258.00	0.0481
1259.00	0.0483
1260.00	0.0485
1261.00	0.0486
1262.00	0.0486
1263.00	0.0487
1264.00	0.0487
1265.00	0.0488
1266.00	0.0489
1267.00	0.0488
1268.00	0.0488
1269.00	0.0489
1270.00	0.0490
1271.00	0.0490
1272.00	0.0492
1273.00	0.0493
1274.00	0.0494
1275.00	0.0492
1276.00	0.0493
1277.00	0.0491
1278.00	0.0490
1279.00	0.0493
1280.00	0.0496
1281.00	0.0496
1282.00	0.0499
1283.00	0.0500
1284.00	0.0498
1285.00	0.0496
1286.00	0.0497
1287.00	0.0497
1288.00	0.0496
1289.00	0.0499
1290.00	0.0496
1291.00	0.0495
1292.00	0.0498
1293.00	0.0499
1294.00	0.0497
1295.00	0.0503
1296.00	0.0506
1297.00	0.0506
1298.00	0.0509
1299.00	0.0510
1300.00	0.0511
1301.00	0.0512
1302.00	0.0512
1303.00	0.0514
1304.00	0.0516
1305.00	0.0518
1306.00	0.0519
1307.00	0.0520
1308.00	0.0518
1309.00	0.0520
1310.00	0.0520
1311.00	0.0520
1312.00	0.0523
1313.00	0.0524
1314.00	0.0525
1315.00	0.0528
1316.00	0.0528
1317.00	0.0526
1318.00	0.0526
1319.00	0.0524
1320.00	0.0524
1321.00	0.0525
1322.00	0.0528
1323.00	0.0530
1324.00	0.0535
1325.00	0.0535
1326.00	0.0538
1327.00	0.0540
1328.00	0.0541
1329.00	0.0539
1330.00	0.0541
1331.00	0.0541
1332.00	0.0540
1333.00	0.0541
1334.00	0.0544
1335.00	0.0544
1336.00	0.0546
1337.00	0.0550
1338.00	0.0552
1339.00	0.0553
1340.00	0.0555
1341.00	0.0557
1342.00	0.0555
1343.00	0.0556
1344.00	0.0555
1345.00	0.0557
1346.00	0.0555
1347.00	0.0557
1348.00	0.0558
1349.00	0.0563
1350.00	0.0559
1351.00	0.0571
1352.00	0.0573
1353.00	0.0574
1354.00	0.0575
1355.00	0.0576
1356.00	0.0569
1357.00	0.0572
1358.00	0.0574
1359.00	0.0575
1360.00	0.0580
1361.00	0.0581
1362.00	0.0583
1363.00	0.0585
1364.00	0.0586
1365.00	0.0590
1366.00	0.0590
1367.00	0.0589
1368.00	0.0589
1369.00	0.0591
1370.00	0.0588
1371.00	0.0590
1372.00	0.0592
1373.00	0.0593
1374.00	0.0595
1375.00	0.0597
1376.00	0.0601
1377.00	0.0604
1378.00	0.0605
1379.00	0.0608
1380.00	0.0610
1381.00	0.0607
1382.00	0.0606
1383.00	0.0609
1384.00	0.0610
1385.00	0.0611
1386.00	0.0615
1387.00	0.0618
1388.00	0.0619
1389.00	0.0620
1390.00	0.0622
1391.00	0.0626
1392.00	0.0628
1393.00	0.0630
1394.00	0.0629
1395.00	0.0634
1396.00	0.0634
1397.00	0.0629
1398.00	0.0631
1399.00	0.0634
1400.00	0.0635
1401.00	0.0636
1402.00	0.0645
1403.00	0.0647
1404.00	0.0648
1405.00	0.0648
1406.00	0.0650
1407.00	0.0652
1408.00	0.0655
1409.00	0.0658
1410.00	0.0660
1411.00	0.0663
1412.00	0.0662
1413.00	0.0664
1414.00	0.0667
1415.00	0.0671
1416.00	0.0671
1417.00	0.0672
1418.00	0.0674
1419.00	0.0676
1420.00	0.0676
1421.00	0.0679
1422.00	0.0682
1423.00	0.0682
1424.00	0.0681
1425.00	0.0685
1426.00	0.0690
1427.00	0.0691
1428.00	0.0693
1429.00	0.0695
1430.00	0.0697
1431.00	0.0695
1432.00	0.0698
1433.00	0.0701
1434.00	0.0704
1435.00	0.0706
1436.00	0.0708
1437.00	0.0712
1438.00	0.0713
1439.00	0.0714
1440.00	0.0713
1441.00	0.0716
1442.00	0.0712
1443.00	0.0708
1444.00	0.0710
1445.00	0.0712
1446.00	0.0713
1447.00	0.0718
1448.00	0.0728
1449.00	0.0732
1450.00	0.0736
1451.00	0.0738
1452.00	0.0739
1453.00	0.0739
1454.00	0.0739
1455.00	0.0739
1456.00	0.0741
1457.00	0.0743
1458.00	0.0748
1459.00	0.0750
1460.00	0.0751
1461.00	0.0754
1462.00	0.0757
1463.00	0.0756
1464.00	0.0759
1465.00	0.0760
1466.00	0.0761
1467.00	0.0762
1468.00	0.0764
1469.00	0.0765
1470.00	0.0770
1471.00	0.0776
1472.00	0.0776
1473.00	0.0781
1474.00	0.0784
1475.00	0.0785
1476.00	0.0784
1477.00	0.0788
1478.00	0.0785
1479.00	0.0786
1480.00	0.0786
1481.00	0.0789
1482.00	0.0792
1483.00	0.0797
1484.00	0.0799
1485.00	0.0802
1486.00	0.0804
1487.00	0.0805
1488.00	0.0810
1489.00	0.0814
1490.00	0.0817
1491.00	0.0819
1492.00	0.0820
1493.00	0.0821
1494.00	0.0821
1495.00	0.0823
1496.00	0.0825
1497.00	0.0829
1498.00	0.0830
1499.00	0.0831
1500.00	0.0834
1501.00	0.0836
1502.00	0.0838
1503.00	0.0842
1504.00	0.0843
1505.00	0.0846
1506.00	0.0850
1507.00	0.0852
1508.00	0.0856
1509.00	0.0860
1510.00	0.0861
1511.00	0.0862
1512.00	0.0864
1513.00	0.0864
1514.00	0.0868
1515.00	0.0870
1516.00	0.0871
1517.00	0.0874
1518.00	0.0874
1519.00	0.0879
1520.00	0.0880
1521.00	0.0884
1522.00	0.0886
1523.00	0.0893
1524.00	0.0893
1525.00	0.0896
1526.00	0.0899
1527.00	0.0900
1528.00	0.0900
1529.00	0.0900
1530.00	0.0902
1531.00	0.0903
1532.00	0.0906
1533.00	0.0906
1534.00	0.0910
1535.00	0.0912
1536.00	0.0914
1537.00	0.0916
1538.00	0.0917
1539.00	0.0918
1540.00	0.0919
1541.00	0.0920
1542.00	0.0922
1543.00	0.0927
1544.00	0.0928
1545.00	0.0933
1546.00	0.0937
1547.00	0.0939
1548.00	0.0942
1549.00	0.0945
1550.00	0.0947
1551.00	0.0949
1552.00	0.0950
1553.00	0.0952
1554.00	0.0954
1555.00	0.0954
1556.00	0.0957
1557.00	0.0960
1558.00	0.0962
1559.00	0.0963
1560.00	0.0966
1561.00	0.0971
1562.00	0.0973
1563.00	0.0976
1564.00	0.0979
1565.00	0.0982
1566.00	0.0980
1567.00	0.0983
1568.00	0.0985
1569.00	0.0986
1570.00	0.0990
1571.00	0.0996
1572.00	0.0999
1573.00	0.1000
1574.00	0.1004
1575.00	0.1004
1576.00	0.1006
1577.00	0.1008
1578.00	0.1012
1579.00	0.1014
1580.00	0.1016
1581.00	0.1019
1582.00	0.1021
1583.00	0.1023
1584.00	0.1026
1585.00	0.1030
1586.00	0.1034
1587.00	0.1037
1588.00	0.1040
1589.00	0.1044
1590.00	0.1046
1591.00	0.1048
1592.00	0.1050
1593.00	0.1051
1594.00	0.1053
1595.00	0.1055
1596.00	0.1056
1597.00	0.1058
1598.00	0.1062
1599.00	0.1063
1600.00	0.1067
1601.00	0.1071
1602.00	0.1075
1603.00	0.1077
1604.00	0.1079
1605.00	0.1082
1606.00	0.1084
1607.00	0.1085
1608.00	0.1087
1609.00	0.1092
1610.00	0.1091
1611.00	0.1095
1612.00	0.1097
1613.00	0.1101
1614.00	0.1105
1615.00	0.1108
1616.00	0.1109
1617.00	0.1113
1618.00	0.1113
1619.00	0.1113
1620.00	0.1116
1621.00	0.1117
1622.00	0.1120
1623.00	0.1123
1624.00	0.1128
1625.00	0.1132
1626.00	0.1136
1627.00	0.1140
1628.00	0.1142
1629.00	0.1143
1630.00	0.1143
1631.00	0.1146
1632.00	0.1144
1633.00	0.1148
1634.00	0.1148
1635.00	0.1150
1636.00	0.1151
1637.00	0.1154
1638.00	0.1157
1639.00	0.1155
1640.00	0.1156
1641.00	0.1158
1642.00	0.1154
1643.00	0.1144
1644.00	0.1149
1645.00	0.1148
1646.00	0.1144
1647.00	0.1147
1648.00	0.1151
1649.00	0.1149
1650.00	0.1147
1651.00	0.1146
1652.00	0.1145
1653.00	0.1141
1654.00	0.1139
1655.00	0.1138
1656.00	0.1137
1657.00	0.1136
1658.00	0.1139
1659.00	0.1141
1660.00	0.1141
1661.00	0.1144
1662.00	0.1146
1663.00	0.1146
1664.00	0.1146
1665.00	0.1148
1666.00	0.1149
1667.00	0.1151
1668.00	0.1154
1669.00	0.1155
1670.00	0.1158
1671.00	0.1159
1672.00	0.1161
1673.00	0.1163
1674.00	0.1167
1675.00	0.1169
1676.00	0.1172
1677.00	0.1172
1678.00	0.1172
1679.00	0.1172
1680.00	0.1174
1681.00	0.1176
1682.00	0.1179
1683.00	0.1183
1684.00	0.1186
1685.00	0.1188
1686.00	0.1189
1687.00	0.1191
1688.00	0.1193
1689.00	0.1196
1690.00	0.1198
1691.00	0.1198
1692.00	0.1200
1693.00	0.1200
1694.00	0.1200
1695.00	0.1200
1696.00	0.1204
1697.00	0.1208
1698.00	0.1213
1699.00	0.1218
1700.00	0.1220
1701.00	0.1223
1702.00	0.1224
1703.00	0.1222
1704.00	0.1220
1705.00	0.1222
1706.00	0.1224
1707.00	0.1225
1708.00	0.1227
1709.00	0.1232
1710.00	0.1235
1711.00	0.1239
1712.00	0.1245
1713.00	0.1247
1714.00	0.1250
1715.00	0.1251
1716.00	0.1251
1717.00	0.1250
1718.00	0.1251
1719.00	0.1252
1720.00	0.1254
1721.00	0.1256
1722.00	0.1259
1723.00	0.1261
1724.00	0.1263
1725.00	0.1263
1726.00	0.1265
1727.00	0.1265
1728.00	0.1268
1729.00	0.1271
1730.00	0.1274
1731.00	0.1277
1732.00	0.1280
1733.00	0.1282
1734.00	0.1285
1735.00	0.1288
1736.00	0.1288
1737.00	0.1291
1738.00	0.1290
1739.00	0.1291
1740.00	0.1292
1741.00	0.1296
1742.00	0.1299
1743.00	0.1303
1744.00	0.1304
1745.00	0.1306
1746.00	0.1307
1747.00	0.1306
1748.00	0.1306
1749.00	0.1307
1750.00	0.1309
1751.00	0.1310
1752.00	0.1313
1753.00	0.1317
1754.00	0.1320
1755.00	0.1323
1756.00	0.1325
1757.00	0.1328
1758.00	0.1328
1759.00	0.1328
1760.00	0.1326
1761.00	0.1327
1762.00	0.1328
1763.00	0.1332
1764.00	0.1335
1765.00	0.1339
1766.00	0.1342
1767.00	0.1346
1768.00	0.1348
1769.00	0.1349
1770.00	0.1351
1771.00	0.1351
1772.00	0.1351
1773.00	0.1350
1774.00	0.1352
1775.00	0.1355
1776.00	0.1356
1777.00	0.1357
1778.00	0.1360
1779.00	0.1360
1780.00	0.1361
1781.00	0.1364
1782.00	0.1366
1783.00	0.1369
1784.00	0.1372
1785.00	0.1375
1786.00	0.1376
1787.00	0.1381
1788.00	0.1381
1789.00	0.1383
1790.00	0.1382
1791.00	0.1383
1792.00	0.1383
1793.00	0.1385
1794.00	0.1386
1795.00	0.1387
1796.00	0.1388
1797.00	0.1391
1798.00	0.1392
1799.00	0.1394
1800.00	0.1397
1801.00	0.1401
1802.00	0.1402
1803.00	0.1404
1804.00	0.1406
1805.00	0.1407
1806.00	0.1407
1807.00	0.1409
1808.00	0.1414
1809.00	0.1417
1810.00	0.1421
1811.00	0.1424
1812.00	0.1426
1813.00	0.1424
1814.00	0.1422
1815.00	0.1421
1816.00	0.1421
1817.00	0.1421
1818.00	0.1424
1819.00	0.1426
1820.00	0.1428
1821.00	0.1431
1822.00	0.1435
1823.00	0.1437
1824.00	0.1438
1825.00	0.1441
1826.00	0.1441
1827.00	0.1440
1828.00	0.1439
1829.00	0.1442
1830.00	0.1443
1831.00	0.1444
1832.00	0.1447
1833.00	0.1450
1834.00	0.1453
1835.00	0.1454
1836.00	0.1458
1837.00	0.1457
1838.00	0.1459
1839.00	0.1460
1840.00	0.1463
1841.00	0.1464
1842.00	0.1465
1843.00	0.1465
1844.00	0.1462
1845.00	0.1462
1846.00	0.1460
1847.00	0.1460
1848.00	0.1461
1849.00	0.1461
1850.00	0.1462
1851.00	0.1465
1852.00	0.1467
1853.00	0.1471
1854.00	0.1477
1855.00	0.1480
1856.00	0.1483
1857.00	0.1487
1858.00	0.1489
1859.00	0.1489
1860.00	0.1491
1861.00	0.1491
1862.00	0.1490
1863.00	0.1490
1864.00	0.1491
1865.00	0.1490
1866.00	0.1490
1867.00	0.1491
1868.00	0.1492
1869.00	0.1492
1870.00	0.1493
1871.00	0.1495
1872.00	0.1494
1873.00	0.1496
1874.00	0.1499
1875.00	0.1503
1876.00	0.1506
1877.00	0.1510
1878.00	0.1507
1879.00	0.1508
1880.00	0.1506
1881.00	0.1505
1882.00	0.1505
1883.00	0.1509
1884.00	0.1509
1885.00	0.1510
1886.00	0.1510
1887.00	0.1512
1888.00	0.1510
1889.00	0.1511
1890.00	0.1514
1891.00	0.1514
1892.00	0.1514
1893.00	0.1519
1894.00	0.1520
1895.00	0.1519
1896.00	0.1521
1897.00	0.1524
1898.00	0.1525
1899.00	0.1526
1900.00	0.1528
1901.00	0.1533
1902.00	0.1536
1903.00	0.1540
1904.00	0.1545
1905.00	0.1548
1906.00	0.1548
1907.00	0.1548
1908.00	0.1546
1909.00	0.1546
1910.00	0.1545
1911.00	0.1545
1912.00	0.1543
1913.00	0.1543
1914.00	0.1542
1915.00	0.1545
1916.00	0.1546
1917.00	0.1550
1918.00	0.1552
1919.00	0.1554
1920.00	0.1555
1921.00	0.1555
1922.00	0.1555
1923.00	0.1556
1924.00	0.1558
1925.00	0.1559
1926.00	0.1561
1927.00	0.1564
1928.00	0.1563
1929.00	0.1561
1930.00	0.1560
1931.00	0.1559
1932.00	0.1556
1933.00	0.1556
1934.00	0.1555
1935.00	0.1555
1936.00	0.1554
1937.00	0.1556
1938.00	0.1558
1939.00	0.1559
1940.00	0.1564
1941.00	0.1568
1942.00	0.1569
1943.00	0.1568
1944.00	0.1569
1945.00	0.1569
1946.00	0.1567
1947.00	0.1569
1948.00	0.1572
1949.00	0.1573
1950.00	0.1572
1951.00	0.1572
1952.00	0.1571
1953.00	0.1571
1954.00	0.1575
1955.00	0.1578
1956.00	0.1583
1957.00	0.1586
1958.00	0.1586
1959.00	0.1586
1960.00	0.1587
1961.00	0.1587
1962.00	0.1587
1963.00	0.1589
1964.00	0.1588
1965.00	0.1588
1966.00	0.1587
1967.00	0.1589
1968.00	0.1591
1969.00	0.1592
1970.00	0.1592
1971.00	0.1595
1972.00	0.1593
1973.00	0.1591
1974.00	0.1594
1975.00	0.1593
1976.00	0.1595
1977.00	0.1597
1978.00	0.1601
1979.00	0.1601
1980.00	0.1603
1981.00	0.1599
1982.00	0.1600
1983.00	0.1601
1984.00	0.1600
1985.00	0.1602
1986.00	0.1606
1987.00	0.1605
1988.00	0.1604
1989.00	0.1606
1990.00	0.1606
1991.00	0.1608
1992.00	0.1610
1993.00	0.1609
1994.00	0.1608
1995.00	0.1607
1996.00	0.1607
1997.00	0.1608
1998.00	0.1610
1999.00	0.1610
2000.00	0.1614
2001.00	0.1617
2002.00	0.1616
2003.00	0.1617
2004.00	0.1616
2005.00	0.1615
2006.00	0.1614
2007.00	0.1615
2008.00	0.1615
2009.00	0.1618
2010.00	0.1617
2011.00	0.1615
2012.00	0.1617
2013.00	0.1618
2014.00	0.1619
2015.00	0.1622
2016.00	0.1623
2017.00	0.1624
2018.00	0.1623
2019.00	0.1618
2020.00	0.1620
2021.00	0.1621
2022.00	0.1620
2023.00	0.1621
2024.00	0.1625
2025.00	0.1625
2026.00	0.1626
2027.00	0.1625
2028.00	0.1623
2029.00	0.1624
2030.00	0.1625
2031.00	0.1627
2032.00	0.1630
2033.00	0.1635
2034.00	0.1635
2035.00	0.1634
2036.00	0.1634
2037.00	0.1634
2038.00	0.1634
2039.00	0.1634
2040.00	0.1632
2041.00	0.1631
2042.00	0.1628
2043.00	0.1626
2044.00	0.1629
2045.00	0.1634
2046.00	0.1635
2047.00	0.1639
2048.00	0.1636
2049.00	0.1636
2050.00	0.1635
2051.00	0.1637
2052.00	0.1638
2053.00	0.1645
2054.00	0.1646
2055.00	0.1648
2056.00	0.1647
2057.00	0.1648
2058.00	0.1647
2059.00	0.1646
2060.00	0.1648
2061.00	0.1648
2062.00	0.1650
2063.00	0.1651
2064.00	0.1654
2065.00	0.1651
2066.00	0.1654
2067.00	0.1654
2068.00	0.1655
2069.00	0.1655
2070.00	0.1657
2071.00	0.1655
2072.00	0.1653
2073.00	0.1649
2074.00	0.1648
2075.00	0.1642
2076.00	0.1641
2077.00	0.1640
2078.00	0.1642
2079.00	0.1645
2080.00	0.1652
2081.00	0.1653
2082.00	0.1656
2083.00	0.1659
2084.00	0.1658
2085.00	0.1659
2086.00	0.1664
2087.00	0.1662
2088.00	0.1660
2089.00	0.1655
2090.00	0.1658
2091.00	0.1657
2092.00	0.1658
2093.00	0.1657
2094.00	0.1660
2095.00	0.1656
2096.00	0.1655
2097.00	0.1652
2098.00	0.1655
2099.00	0.1657
2100.00	0.1659
2101.00	0.1661
2102.00	0.1666
2103.00	0.1668
2104.00	0.1667
2105.00	0.1665
2106.00	0.1661
2107.00	0.1661
2108.00	0.1660
2109.00	0.1661
2110.00	0.1661
2111.00	0.1664
2112.00	0.1663
2113.00	0.1661
2114.00	0.1661
2115.00	0.1664
2116.00	0.1662
2117.00	0.1662
2118.00	0.1664
2119.00	0.1661
2120.00	0.1660
2121.00	0.1660
2122.00	0.1662
2123.00	0.1662
2124.00	0.1667
2125.00	0.1668
2126.00	0.1673
2127.00	0.1674
2128.00	0.1675
2129.00	0.1673
2130.00	0.1674
2131.00	0.1671
2132.00	0.1671
2133.00	0.1676
2134.00	0.1678
2135.00	0.1679
2136.00	0.1680
2137.00	0.1676
2138.00	0.1672
2139.00	0.1671
2140.00	0.1668
2141.00	0.1669
2142.00	0.1671
2143.00	0.1671
2144.00	0.1670
2145.00	0.1672
2146.00	0.1672
2147.00	0.1671
2148.00	0.1671
2149.00	0.1669
2150.00	0.1667
2151.00	0.1668
2152.00	0.1668
2153.00	0.1666
2154.00	0.1666
2155.00	0.1668
2156.00	0.1665
2157.00	0.1664
2158.00	0.1667
2159.00	0.1669
2160.00	0.1667
2161.00	0.1666
2162.00	0.1665
2163.00	0.1662
2164.00	0.1660
2165.00	0.1664
2166.00	0.1668
2167.00	0.1673
2168.00	0.1677
2169.00	0.1677
2170.00	0.1674
2171.00	0.1673
2172.00	0.1672
2173.00	0.1669
2174.00	0.1668
2175.00	0.1665
2176.00	0.1666
2177.00	0.1666
2178.00	0.1668
2179.00	0.1668
2180.00	0.1673
2181.00	0.1673
2182.00	0.1671
2183.00	0.1669
2184.00	0.1675
2185.00	0.1673
2186.00	0.1672
2187.00	0.1667
2188.00	0.1669
2189.00	0.1665
2190.00	0.1667
2191.00	0.1668
2192.00	0.1670
2193.00	0.1670
2194.00	0.1664
2195.00	0.1659
2196.00	0.1656
2197.00	0.1659
2198.00	0.1655
2199.00	0.1660
2200.00	0.1661
2201.00	0.1664
2202.00	0.1659
2203.00	0.1661
2204.00	0.1658
2205.00	0.1656
2206.00	0.1654
2207.00	0.1654
2208.00	0.1652
2209.00	0.1654
2210.00	0.1656
2211.00	0.1656
2212.00	0.1653
2213.00	0.1654
2214.00	0.1653
2215.00	0.1654
2216.00	0.1654
2217.00	0.1655
2218.00	0.1656
2219.00	0.1657
2220.00	0.1656
2221.00	0.1649
2222.00	0.1650
2223.00	0.1648
2224.00	0.1647
2225.00	0.1645
2226.00	0.1652
2227.00	0.1652
2228.00	0.1645
2229.00	0.1645
2230.00	0.1642
2231.00	0.1641
2232.00	0.1644
2233.00	0.1647
2234.00	0.1648
2235.00	0.1656
2236.00	0.1655
2237.00	0.1651
2238.00	0.1652
2239.00	0.1656
2240.00	0.1652
2241.00	0.1654
2242.00	0.1653
2243.00	0.1660
2244.00	0.1659
2245.00	0.1659
2246.00	0.1659
2247.00	0.1662
2248.00	0.1660
2249.00	0.1660
2250.00	0.1660
2251.00	0.1660
2252.00	0.1661
2253.00	0.1660
2254.00	0.1659
2255.00	0.1658
2256.00	0.1658
2257.00	0.1661
2258.00	0.1662
2259.00	0.1657
2260.00	0.1662
2261.00	0.1661
2262.00	0.1659
2263.00	0.1659
2264.00	0.1665
2265.00	0.1663
2266.00	0.1665
2267.00	0.1663
2268.00	0.1662
2269.00	0.1660
2270.00	0.1660
2271.00	0.1657
2272.00	0.1656
2273.00	0.1653
2274.00	0.1650
2275.00	0.1649
2276.00	0.1648
2277.00	0.1651
2278.00	0.1653
2279.00	0.1657
2280.00	0.1657
2281.00	0.1659
2282.00	0.1655
2283.00	0.1655
2284.00	0.1654
2285.00	0.1656
2286.00	0.1658
2287.00	0.1662
2288.00	0.1661
2289.00	0.1661
2290.00	0.1661
2291.00	0.1656
2292.00	0.1655
2293.00	0.1658
2294.00	0.1651
2295.00	0.1652
2296.00	0.1655
2297.00	0.1654
2298.00	0.1653
2299.00	0.1658
2300.00	0.1655
2301.00	0.1658
2302.00	0.1659
2303.00	0.1658
2304.00	0.1656
2305.00	0.1656
2306.00	0.1652
2307.00	0.1650
2308.00	0.1650
2309.00	0.1652
2310.00	0.1651
2311.00	0.1653
2312.00	0.1655
2313.00	0.1655
2314.00	0.1654
2315.00	0.1654
2316.00	0.1655
2317.00	0.1654
2318.00	0.1654
2319.00	0.1654
2320.00	0.1655
2321.00	0.1654
2322.00	0.1655
2323.00	0.1655
2324.00	0.1658
2325.00	0.1656
2326.00	0.1657
2327.00	0.1655
2328.00	0.1652
2329.00	0.1649
2330.00	0.1650
2331.00	0.1647
2332.00	0.1648
2333.00	0.1653
2334.00	0.1652
2335.00	0.1647
2336.00	0.1648
2337.00	0.1647
2338.00	0.1643
2339.00	0.1641
2340.00	0.1642
2341.00	0.1644
2342.00	0.1645
2343.00	0.1645
2344.00	0.1648
2345.00	0.1649
2346.00	0.1647
2347.00	0.1646
2348.00	0.1647
2349.00	0.1645
2350.00	0.1645
2351.00	0.1645
2352.00	0.1646
2353.00	0.1642
2354.00	0.1646
2355.00	0.1647
2356.00	0.1643
2357.00	0.1643
2358.00	0.1645
2359.00	0.1645
2360.00	0.1643
2361.00	0.1643
2362.00	0.1643
2363.00	0.1646
2364.00	0.1640
2365.00	0.1639
2366.00	0.1643
2367.00	0.1642
2368.00	0.1640
2369.00	0.1643
2370.00	0.1641
2371.00	0.1637
2372.00	0.1633
2373.00	0.1630
2374.00	0.1629
2375.00	0.1633
2376.00	0.1631
2377.00	0.1634
2378.00	0.1636
2379.00	0.1637
2380.00	0.1631
2381.00	0.1630
2382.00	0.1628
2383.00	0.1628
2384.00	0.1623
2385.00	0.1628
2386.00	0.1633
2387.00	0.1635
2388.00	0.1634
2389.00	0.1635
2390.00	0.1632
2391.00	0.1632
2392.00	0.1631
2393.00	0.1630
2394.00	0.1628
2395.00	0.1632
2396.00	0.1630
2397.00	0.1630
2398.00	0.1632
2399.00	0.1634
2400.00	0.1631
2401.00	0.1632
2402.00	0.1628
2403.00	0.1623
2404.00	0.1619
2405.00	0.1619
2406.00	0.1618
2407.00	0.1617
2408.00	0.1615
2409.00	0.1616
2410.00	0.1617
2411.00	0.1618
2412.00	0.1616
2413.00	0.1618
2414.00	0.1619
2415.00	0.1620
2416.00	0.1619
2417.00	0.1626
2418.00	0.1628
2419.00	0.1629
2420.00	0.1624
2421.00	0.1620
2422.00	0.1617
2423.00	0.1613
2424.00	0.1611
2425.00	0.1611
2426.00	0.1613
2427.00	0.1611
2428.00	0.1614
2429.00	0.1616
2430.00	0.1621
2431.00	0.1620
2432.00	0.1623
2433.00	0.1622
2434.00	0.1622
2435.00	0.1620
2436.00	0.1619
2437.00	0.1613
2438.00	0.1614
2439.00	0.1615
2440.00	0.1613
2441.00	0.1615
2442.00	0.1617
2443.00	0.1616
2444.00	0.1613
2445.00	0.1616
2446.00	0.1612
2447.00	0.1611
2448.00	0.1611
2449.00	0.1611
2450.00	0.1602
2451.00	0.1605
2452.00	0.1609
2453.00	0.1614
2454.00	0.1612
2455.00	0.1615
2456.00	0.1613
2457.00	0.1609
2458.00	0.1603
2459.00	0.1604
2460.00	0.1606
2461.00	0.1605
2462.00	0.1604
2463.00	0.1602
2464.00	0.1600
2465.00	0.1598
2466.00	0.1597
2467.00	0.1597
2468.00	0.1600
2469.00	0.1604
2470.00	0.1602
2471.00	0.1604
2472.00	0.1603
2473.00	0.1600
2474.00	0.1592
2475.00	0.1593
2476.00	0.1595
2477.00	0.1596
2478.00	0.1599
2479.00	0.1598
2480.00	0.1598
2481.00	0.1593
2482.00	0.1586
2483.00	0.1581
2484.00	0.1582
2485.00	0.1583
2486.00	0.1584
2487.00	0.1588
2488.00	0.1590
2489.00	0.1595
2490.00	0.1590
2491.00	0.1587
2492.00	0.1584
2493.00	0.1586
2494.00	0.1585
2495.00	0.1584
2496.00	0.1587
2497.00	0.1588
2498.00	0.1580
2499.00	0.1578
2500.00	0.1581
2501.00	0.1583
2502.00	0.1582
2503.00	0.1581
2504.00	0.1583
2505.00	0.1582
2506.00	0.1583
2507.00	0.1580
2508.00	0.1577
2509.00	0.1578
2510.00	0.1578
2511.00	0.1579
2512.00	0.1579
2513.00	0.1575
2514.00	0.1579
2515.00	0.1579
2516.00	0.1579
2517.00	0.1580
2518.00	0.1582
2519.00	0.1582
2520.00	0.1584
2521.00	0.1583
2522.00	0.1582
2523.00	0.1579
2524.00	0.1577
2525.00	0.1573
2526.00	0.1570
2527.00	0.1569
2528.00	0.1567
2529.00	0.1568
2530.00	0.1568
2531.00	0.1566
2532.00	0.1565
2533.00	0.1566
2534.00	0.1566
2535.00	0.1565
2536.00	0.1564
2537.00	0.1565
2538.00	0.1567
2539.00	0.1567
2540.00	0.1567
2541.00	0.1567
2542.00	0.1565
2543.00	0.1562
2544.00	0.1561
2545.00	0.1557
2546.00	0.1554
2547.00	0.1552
2548.00	0.1550
2549.00	0.1548
2550.00	0.1549
2551.00	0.1546
2552.00	0.1544
2553.00	0.1543
2554.00	0.1536
2555.00	0.1535
2556.00	0.1539
2557.00	0.1536
2558.00	0.1534
2559.00	0.1533
2560.00	0.1534
2561.00	0.1540
2562.00	0.1540
2563.00	0.1538
2564.00	0.1540
2565.00	0.1541
2566.00	0.1547
2567.00	0.1551
2568.00	0.1549
2569.00	0.1552
2570.00	0.1552
2571.00	0.1551
2572.00	0.1551
2573.00	0.1556
2574.00	0.1553
2575.00	0.1552
2576.00	0.1548
2577.00	0.1545
2578.00	0.1545
2579.00	0.1547
2580.00	0.1540
2581.00	0.1536
2582.00	0.1536
2583.00	0.1532
2584.00	0.1530
2585.00	0.1529
2586.00	0.1523
2587.00	0.1518
2588.00	0.1522
2589.00	0.1520
2590.00	0.1521
2591.00	0.1528
2592.00	0.1527
2593.00	0.1529
2594.00	0.1527
2595.00	0.1521
2596.00	0.1519
2597.00	0.1518
2598.00	0.1513
2599.00	0.1510
2600.00	0.1509
2601.00	0.1513
2602.00	0.1513
2603.00	0.1514
2604.00	0.1513
2605.00	0.1511
2606.00	0.1512
2607.00	0.1514
2608.00	0.1511
2609.00	0.1510
2610.00	0.1511
2611.00	0.1511
2612.00	0.1515
2613.00	0.1517
2614.00	0.1519
2615.00	0.1523
2616.00	0.1524
2617.00	0.1524
2618.00	0.1524
2619.00	0.1522
2620.00	0.1517
2621.00	0.1512
2622.00	0.1506
2623.00	0.1503
2624.00	0.1499
2625.00	0.1500
2626.00	0.1497
2627.00	0.1497
2628.00	0.1497
2629.00	0.1498
2630.00	0.1499
2631.00	0.1505
2632.00	0.1503
2633.00	0.1503
2634.00	0.1504
2635.00	0.1505
2636.00	0.1504
2637.00	0.1503
2638.00	0.1500
2639.00	0.1501
2640.00	0.1499
2641.00	0.1497
2642.00	0.1495
2643.00	0.1490
2644.00	0.1489
2645.00	0.1487
2646.00	0.1481
2647.00	0.1481
2648.00	0.1480
2649.00	0.1480
2650.00	0.1481
2651.00	0.1481
2652.00	0.1481
2653.00	0.1482
2654.00	0.1481
2655.00	0.1476
2656.00	0.1473
2657.00	0.1475
2658.00	0.1475
2659.00	0.1466
2660.00	0.1468
2661.00	0.1467
2662.00	0.1464
2663.00	0.1466
2664.00	0.1458
2665.00	0.1457
2666.00	0.1470
2667.00	0.1472
2668.00	0.1479
2669.00	0.1491
2670.00	0.1494
2671.00	0.1506
2672.00	0.1503
2673.00	0.1494
2674.00	0.1493
2675.00	0.1482
2676.00	0.1473
2677.00	0.1466
2678.00	0.1455
2679.00	0.1443
2680.00	0.1433
2681.00	0.1424
2682.00	0.1428
2683.00	0.1428
2684.00	0.1426
2685.00	0.1430
2686.00	0.1439
2687.00	0.1441
2688.00	0.1435
2689.00	0.1433
2690.00	0.1431
2691.00	0.1442
2692.00	0.1458
2693.00	0.1470
2694.00	0.1484
2695.00	0.1477
2696.00	0.1487
2697.00	0.1521
2698.00	0.1546
2699.00	0.1568
2700.00	0.1599
2701.00	0.1641
2702.00	0.1667
2703.00	0.1701
2704.00	0.1748
2705.00	0.1783
2706.00	0.1810
2707.00	0.1840
2708.00	0.1868
2709.00	0.1896
2710.00	0.1935
2711.00	0.1960
2712.00	0.1987
2713.00	0.2009
2714.00	0.2023
2715.00	0.2054
2716.00	0.2072
2717.00	0.2100
2718.00	0.2101
2719.00	0.2110
2720.00	0.2115
2721.00	0.2098
2722.00	0.2104
2723.00	0.2101
2724.00	0.2083
2725.00	0.2073
2726.00	0.2066
2727.00	0.2061
2728.00	0.2023
2729.00	0.2002
2730.00	0.1984
2731.00	0.1972
2732.00	0.1967
2733.00	0.1940
2734.00	0.1924
2735.00	0.1910
2736.00	0.1892
2737.00	0.1852
2738.00	0.1820
2739.00	0.1803
2740.00	0.1777
2741.00	0.1747
2742.00	0.1719
2743.00	0.1691
2744.00	0.1671
2745.00	0.1632
2746.00	0.1614
2747.00	0.1595
2748.00	0.1582
2749.00	0.1552
2750.00	0.1540
2751.00	0.1534
2752.00	0.1514
2753.00	0.1501
2754.00	0.1476
2755.00	0.1454
2756.00	0.1445
2757.00	0.1425
2758.00	0.1409
2759.00	0.1389
2760.00	0.1390
2761.00	0.1361
2762.00	0.1344
2763.00	0.1331
2764.00	0.1308
2765.00	0.1296
2766.00	0.1283
2767.00	0.1271
2768.00	0.1267
2769.00	0.1254
2770.00	0.1252
2771.00	0.1234
2772.00	0.1236
2773.00	0.1226
2774.00	0.1219
2775.00	0.1213
2776.00	0.1211
2777.00	0.1205
2778.00	0.1206
2779.00	0.1197
2780.00	0.1188
2781.00	0.1179
2782.00	0.1184
2783.00	0.1180
2784.00	0.1182
2785.00	0.1185
2786.00	0.1187
2787.00	0.1184
2788.00	0.1187
2789.00	0.1185
2790.00	0.1190
2791.00	0.1196
2792.00	0.1199
2793.00	0.1197
2794.00	0.1195
2795.00	0.1196
2796.00	0.1197
2797.00	0.1194
2798.00	0.1194
2799.00	0.1192
2800.00	0.1189
2801.00	0.1186
2802.00	0.1188
2803.00	0.1189
2804.00	0.1190
2805.00	0.1190
2806.00	0.1189
2807.00	0.1190
2808.00	0.1195
2809.00	0.1198
2810.00	0.1204
2811.00	0.1208
2812.00	0.1212
2813.00	0.1213
2814.00	0.1213
2815.00	0.1214
2816.00	0.1218
2817.00	0.1221
2818.00	0.1224
2819.00	0.1226
2820.00	0.1228
2821.00	0.1229
2822.00	0.1230
2823.00	0.1231
2824.00	0.1235
2825.00	0.1239
2826.00	0.1241
2827.00	0.1241
2828.00	0.1246
2829.00	0.1249
2830.00	0.1252
2831.00	0.1256
2832.00	0.1261
2833.00	0.1265
2834.00	0.1268
2835.00	0.1271
2836.00	0.1274
2837.00	0.1278
2838.00	0.1281
2839.00	0.1283
2840.00	0.1286
2841.00	0.1288
2842.00	0.1290
2843.00	0.1291
2844.00	0.1293
2845.00	0.1294
2846.00	0.1295
2847.00	0.1297
2848.00	0.1298
2849.00	0.1302
2850.00	0.1303
2851.00	0.1304
2852.00	0.1305
2853.00	0.1307
2854.00	0.1307
2855.00	0.1306
2856.00	0.1311
2857.00	0.1313
2858.00	0.1314
2859.00	0.1314
2860.00	0.1313
2861.00	0.1316
2862.00	0.1317
2863.00	0.1316
2864.00	0.1314
2865.00	0.1315
2866.00	0.1319
2867.00	0.1319
2868.00	0.1319
2869.00	0.1320
2870.00	0.1319
2871.00	0.1323
2872.00	0.1323
2873.00	0.1324
2874.00	0.1326
2875.00	0.1328
2876.00	0.1329
2877.00	0.1329
2878.00	0.1329
2879.00	0.1331
2880.00	0.1331
2881.00	0.1333
2882.00	0.1332
2883.00	0.1332
2884.00	0.1333
2885.00	0.1333
2886.00	0.1335
2887.00	0.1334
2888.00	0.1334
2889.00	0.1334
2890.00	0.1332
2891.00	0.1333
2892.00	0.1333
2893.00	0.1333
2894.00	0.1333
2895.00	0.1330
2896.00	0.1330
2897.00	0.1328
2898.00	0.1329
2899.00	0.1329
2900.00	0.1330
2901.00	0.1333
2902.00	0.1334
2903.00	0.1335
2904.00	0.1336
2905.00	0.1334
2906.00	0.1334
2907.00	0.1337
2908.00	0.1339
2909.00	0.1339
2910.00	0.1339
2911.00	0.1338
2912.00	0.1337
2913.00	0.1336
2914.00	0.1335
2915.00	0.1334
2916.00	0.1335
2917.00	0.1336
2918.00	0.1336
2919.00	0.1336
2920.00	0.1335
2921.00	0.1334
2922.00	0.1337
2923.00	0.1335
2924.00	0.1333
2925.00	0.1332
2926.00	0.1331
2927.00	0.1331
2928.00	0.1332
2929.00	0.1330
2930.00	0.1327
2931.00	0.1327
2932.00	0.1327
2933.00	0.1324
2934.00	0.1326
2935.00	0.1326
2936.00	0.1326
2937.00	0.1328
2938.00	0.1328
2939.00	0.1326
2940.00	0.1327
2941.00	0.1331
2942.00	0.1330
2943.00	0.1332
2944.00	0.1335
2945.00	0.1333
2946.00	0.1334
2947.00	0.1334
2948.00	0.1332
2949.00	0.1334
2950.00	0.1334
2951.00	0.1334
2952.00	0.1332
2953.00	0.1332
2954.00	0.1331
2955.00	0.1326
2956.00	0.1326
2957.00	0.1325
2958.00	0.1323
2959.00	0.1321
2960.00	0.1320
2961.00	0.1316
2962.00	0.1318
2963.00	0.1315
2964.00	0.1317
2965.00	0.1315
2966.00	0.1321
2967.00	0.1321
2968.00	0.1322
2969.00	0.1325
2970.00	0.1326
2971.00	0.1324
2972.00	0.1328
2973.00	0.1325
2974.00	0.1326
2975.00	0.1325
2976.00	0.1325
2977.00	0.1323
2978.00	0.1324
2979.00	0.1322
2980.00	0.1320
2981.00	0.1321
2982.00	0.1321
2983.00	0.1320
2984.00	0.1320
2985.00	0.1319
2986.00	0.1319
2987.00	0.1318
2988.00	0.1315
2989.00	0.1314
2990.00	0.1315
2991.00	0.1314
2992.00	0.1316
2993.00	0.1319
2994.00	0.1317
2995.00	0.1318
2996.00	0.1322
2997.00	0.1325
2998.00	0.1325
2999.00	0.1330
3000.00	0.1333
3001.00	0.1330
3002.00	0.1331
3003.00	0.1332
3004.00	0.1333
3005.00	0.1335
3006.00	0.1333
3007.00	0.1332
3008.00	0.1334
3009.00	0.1335
3010.00	0.1334
3011.00	0.1333
3012.00	0.1333
3013.00	0.1331
3014.00	0.1329
3015.00	0.1329
3016.00	0.1329
3017.00	0.1329
3018.00	0.1327
3019.00	0.1327
3020.00	0.1327
3021.00	0.1327
3022.00	0.1327
3023.00	0.1327
3024.00	0.1327
3025.00	0.1326
3026.00	0.1326
3027.00	0.1326
3028.00	0.1326
3029.00	0.1325
3030.00	0.1325
3031.00	0.1326
3032.00	0.1326
3033.00	0.1325
3034.00	0.1326
3035.00	0.1326
3036.00	0.1325
3037.00	0.1324
3038.00	0.1325
3039.00	0.1325
3040.00	0.1324
3041.00	0.1323
3042.00	0.1323
3043.00	0.1321
3044.00	0.1323
3045.00	0.1322
3046.00	0.1321
3047.00	0.1320
3048.00	0.1319
3049.00	0.1320
3050.00	0.1318
3051.00	0.1318
3052.00	0.1318
3053.00	0.1319
3054.00	0.1321
3055.00	0.1321
3056.00	0.1320
3057.00	0.1319
3058.00	0.1319
3059.00	0.1320
3060.00	0.1321
3061.00	0.1318
3062.00	0.1317
3063.00	0.1319
3064.00	0.1319
3065.00	0.1321
3066.00	0.1320
3067.00	0.1322
3068.00	0.1322
3069.00	0.1321
3070.00	0.1321
3071.00	0.1320
3072.00	0.1318
3073.00	0.1318
3074.00	0.1320
3075.00	0.1319
3076.00	0.1318
3077.00	0.1318
3078.00	0.1318
3079.00	0.1318
3080.00	0.1316
3081.00	0.1315
3082.00	0.1312
3083.00	0.1309
3084.00	0.1306
3085.00	0.1306
3086.00	0.1305
3087.00	0.1303
3088.00	0.1301
3089.00	0.1302
3090.00	0.1300
3091.00	0.1297
3092.00	0.1297
3093.00	0.1298
3094.00	0.1296
3095.00	0.1296
3096.00	0.1296
3097.00	0.1295
3098.00	0.1293
3099.00	0.1293
3100.00	0.1294
3101.00	0.1295
3102.00	0.1294
3103.00	0.1295
3104.00	0.1294
3105.00	0.1293
3106.00	0.1292
3107.00	0.1291
3108.00	0.1290
3109.00	0.1289
3110.00	0.1287
3111.00	0.1285
3112.00	0.1284
3113.00	0.1284
3114.00	0.1283
3115.00	0.1283
3116.00	0.1281
3117.00	0.1278
3118.00	0.1277
3119.00	0.1276
3120.00	0.1272
3121.00	0.1270
3122.00	0.1270
3123.00	0.1269
3124.00	0.1270
3125.00	0.1268
3126.00	0.1267
3127.00	0.1268
3128.00	0.1269
3129.00	0.1268
3130.00	0.1268
3131.00	0.1265
3132.00	0.1267
3133.00	0.1267
3134.00	0.1267
3135.00	0.1264
3136.00	0.1263
3137.00	0.1266
3138.00	0.1266
3139.00	0.1266
3140.00	0.1267
3141.00	0.1266
3142.00	0.1266
3143.00	0.1264
3144.00	0.1264
3145.00	0.1265
3146.00	0.1264
3147.00	0.1261
3148.00	0.1260
3149.00	0.1258
3150.00	0.1257
3151.00	0.1256
3152.00	0.1259
3153.00	0.1260
3154.00	0.1258
3155.00	0.1253
3156.00	0.1247
3157.00	0.1244
3158.00	0.1243
3159.00	0.1245
3160.00	0.1244
3161.00	0.1241
3162.00	0.1241
3163.00	0.1241
3164.00	0.1244
3165.00	0.1248
3166.00	0.1246
3167.00	0.1241
3168.00	0.1242
3169.00	0.1240
3170.00	0.1238
3171.00	0.1239
3172.00	0.1244
3173.00	0.1246
3174.00	0.1247
3175.00	0.1252
3176.00	0.1253
3177.00	0.1248
3178.00	0.1246
3179.00	0.1239
3180.00	0.1238
3181.00	0.1235
3182.00	0.1234
3183.00	0.1238
3184.00	0.1242
3185.00	0.1240
3186.00	0.1242
3187.00	0.1241
3188.00	0.1239
3189.00	0.1244
3190.00	0.1250
3191.00	0.1244
3192.00	0.1235
3193.00	0.1228
3194.00	0.1234
3195.00	0.1234
3196.00	0.1242
3197.00	0.1241
3198.00	0.1239
3199.00	0.1236
3200.00	0.1227
3201.00	0.1230
3202.00	0.1227
3203.00	0.1223
3204.00	0.1223
3205.00	0.1220
3206.00	0.1211
3207.00	0.1204
3208.00	0.1207
3209.00	0.1213
3210.00	0.1219
3211.00	0.1216
3212.00	0.1220
3213.00	0.1228
3214.00	0.1226
3215.00	0.1217
3216.00	0.1211
3217.00	0.1225
3218.00	0.1226
3219.00	0.1226
3220.00	0.1233
3221.00	0.1230
3222.00	0.1229
3223.00	0.1232
3224.00	0.1230
3225.00	0.1233
3226.00	0.1224
3227.00	0.1222
3228.00	0.1223
3229.00	0.1216
3230.00	0.1208
3231.00	0.1206
3232.00	0.1218
3233.00	0.1228
3234.00	0.1224
3235.00	0.1216
3236.00	0.1216
3237.00	0.1210
3238.00	0.1204
3239.00	0.1212
3240.00	0.1213
3241.00	0.1216
3242.00	0.1203
3243.00	0.1210
3244.00	0.1206
3245.00	0.1195
3246.00	0.1191
3247.00	0.1181
3248.00	0.1185
3249.00	0.1179
3250.00	0.1171
3251.00	0.1158
3252.00	0.1163
3253.00	0.1158
3254.00	0.1161
3255.00	0.1171
3256.00	0.1163
3257.00	0.1170
3258.00	0.1175
3259.00	0.1186
3260.00	0.1181
3261.00	0.1191
3262.00	0.1197
3263.00	0.1197
3264.00	0.1208
3265.00	0.1223
3266.00	0.1226
3267.00	0.1215
3268.00	0.1208
3269.00	0.1187
3270.00	0.1189
3271.00	0.1173
3272.00	0.1139
3273.00	0.1138
3274.00	0.1119
3275.00	0.1119
3276.00	0.1112
3277.00	0.1100
3278.00	0.1105
3279.00	0.1093
3280.00	0.1106
3281.00	0.1113
3282.00	0.1106
3283.00	0.1100
3284.00	0.1101
3285.00	0.1125
3286.00	0.1160
3287.00	0.1157
3288.00	0.1151
3289.00	0.1188
3290.00	0.1176
3291.00	0.1173
3292.00	0.1166
3293.00	0.1170
3294.00	0.1183
3295.00	0.1168
3296.00	0.1182
3297.00	0.1173
3298.00	0.1160
3299.00	0.1150
3300.00	0.1155
