"RawData - P3h-Doped F4tcnq_CB-10mmol"
"Wavelength nm.","Abs."
300.00, 
301.00, 
302.00, 
303.00, 
304.00, 
305.00, 
306.00, 
307.00, 
308.00, 
309.00, 
310.00, 
311.00, 
312.00, 
313.00, 
314.00, 
315.00, 
316.00, 
317.00, 
318.00, 
319.00, 
320.00, 
321.00, 
322.00, 
323.00, 
324.00, 
325.00, 
326.00, 
327.00, 
328.00, 
329.00, 
330.00, 
331.00, 
332.00, 
333.00, 
334.00, 
335.00, 
336.00, 
337.00, 
338.00, 
339.00, 
340.00, 
341.00, 
342.00, 
343.00, 
344.00, 
345.00, 
346.00, 
347.00, 
348.00, 
349.00, 
350.00, 
351.00, 
352.00, 
353.00, 
354.00, 
355.00, 
356.00, 
357.00, 
358.00, 
359.00, 
360.00, 
361.00, 
362.00, 
363.00, 
364.00, 
365.00, 
366.00, 
367.00, 
368.00, 
369.00, 
370.00, 
371.00, 
372.00, 
373.00, 
374.00, 
375.00, 
376.00, 
377.00, 
378.00, 
379.00, 
380.00, 
381.00, 
382.00, 
383.00, 
384.00, 
385.00, 
386.00, 
387.00, 
388.00, 
389.00, 
390.00, 
391.00, 
392.00, 
393.00, 
394.00, 
395.00, 
396.00, 
397.00, 
398.00, 
399.00, 
400.00, 
401.00, 
402.00, 
403.00, 
404.00, 
405.00, 
406.00, 
407.00, 
408.00, 
409.00, 
410.00, 
411.00, 
412.00, 
413.00, 
414.00, 
415.00, 
416.00, 
417.00, 
418.00, 
419.00, 
420.00, 
421.00, 
422.00, 
423.00, 
424.00, 
425.00, 
426.00, 
427.00, 
428.00, 
429.00, 
430.00, 
431.00, 
432.00, 
433.00, 
434.00, 
435.00, 
436.00, 
437.00, 
438.00, 
439.00, 
440.00, 
441.00, 
442.00, 
443.00, 
444.00, 
445.00, 
446.00, 
447.00, 
448.00, 
449.00, 
450.00, 
451.00, 
452.00, 
453.00, 
454.00, 
455.00, 
456.00, 
457.00, 
458.00, 
459.00, 
460.00, 
461.00, 
462.00, 
463.00, 
464.00, 
465.00, 
466.00, 
467.00, 
468.00, 
469.00, 
470.00, 
471.00, 
472.00, 
473.00, 
474.00, 
475.00, 
476.00, 
477.00, 
478.00, 
479.00, 
480.00, 
481.00, 
482.00, 
483.00, 
484.00, 
485.00, 
486.00, 
487.00, 
488.00, 
489.00, 
490.00, 
491.00, 
492.00, 
493.00, 
494.00, 
495.00, 
496.00, 
497.00, 
498.00, 
499.00, 
500.00, 
501.00, 
502.00, 
503.00, 
504.00, 
505.00, 
506.00, 
507.00, 
508.00, 
509.00, 
510.00, 
511.00, 
512.00, 
513.00, 
514.00, 
515.00, 
516.00, 
517.00, 
518.00, 
519.00, 
520.00, 
521.00, 
522.00, 
523.00, 
524.00, 
525.00, 
526.00, 
527.00, 
528.00, 
529.00, 
530.00, 
531.00, 
532.00, 
533.00, 
534.00, 
535.00, 
536.00, 
537.00, 
538.00, 
539.00, 
540.00, 
541.00, 
542.00, 
543.00, 
544.00, 
545.00, 
546.00, 
547.00, 
548.00, 
549.00, 
550.00, 
551.00, 
552.00, 
553.00, 
554.00, 
555.00, 
556.00, 
557.00, 
558.00, 
559.00, 
560.00, 
561.00, 
562.00, 
563.00, 
564.00, 
565.00, 
566.00, 
567.00, 
568.00, 
569.00, 
570.00, 
571.00, 
572.00, 
573.00, 
574.00, 
575.00, 
576.00, 
577.00, 
578.00, 
579.00, 
580.00, 
581.00, 
582.00, 
583.00, 
584.00, 
585.00, 
586.00, 
587.00, 
588.00, 
589.00, 
590.00, 
591.00, 
592.00, 
593.00, 
594.00, 
595.00, 
596.00, 
597.00, 
598.00, 
599.00, 
600.00, 
601.00, 
602.00, 
603.00, 
604.00, 
605.00, 
606.00, 
607.00, 
608.00, 
609.00, 
610.00, 
611.00, 
612.00, 
613.00, 
614.00, 
615.00, 
616.00, 
617.00, 
618.00, 
619.00, 
620.00, 
621.00, 
622.00, 
623.00, 
624.00, 
625.00, 
626.00, 
627.00, 
628.00, 
629.00, 
630.00, 
631.00, 
632.00, 
633.00, 
634.00, 
635.00, 
636.00, 
637.00, 
638.00, 
639.00, 
640.00, 
641.00, 
642.00, 
643.00, 
644.00, 
645.00, 
646.00, 
647.00, 
648.00, 
649.00, 
650.00, 
651.00, 
652.00, 
653.00, 
654.00, 
655.00, 
656.00, 
657.00, 
658.00, 
659.00, 
660.00, 
661.00, 
662.00, 
663.00, 
664.00, 
665.00, 
666.00, 
667.00, 
668.00, 
669.00, 
670.00, 
671.00, 
672.00, 
673.00, 
674.00, 
675.00, 
676.00, 
677.00, 
678.00, 
679.00, 
680.00, 
681.00, 
682.00, 
683.00, 
684.00, 
685.00, 
686.00, 
687.00, 
688.00, 
689.00, 
690.00, 
691.00, 
692.00, 
693.00, 
694.00, 
695.00, 
696.00, 
697.00, 
698.00, 
699.00, 
700.00, 
701.00, 
702.00, 
703.00, 
704.00, 
705.00, 
706.00, 
707.00, 
708.00, 
709.00, 
710.00, 
711.00, 
712.00, 
713.00, 
714.00, 
715.00, 
716.00, 
717.00, 
718.00, 
719.00, 
720.00, 
721.00, 
722.00, 
723.00, 
724.00, 
725.00, 
726.00, 
727.00, 
728.00, 
729.00, 
730.00, 
731.00, 
732.00, 
733.00, 
734.00, 
735.00, 
736.00, 
737.00, 
738.00, 
739.00, 
740.00, 
741.00, 
742.00, 
743.00, 
744.00, 
745.00, 
746.00, 
747.00, 
748.00, 
749.00, 
750.00, 
751.00, 
752.00, 
753.00, 
754.00, 
755.00, 
756.00, 
757.00, 
758.00, 
759.00, 
760.00, 
761.00, 
762.00, 
763.00, 
764.00, 
765.00, 
766.00, 
767.00, 
768.00, 
769.00, 
770.00, 
771.00, 
772.00, 
773.00, 
774.00, 
775.00, 
776.00, 
777.00, 
778.00, 
779.00, 
780.00, 
781.00, 
782.00, 
783.00, 
784.00, 
785.00, 
786.00, 
787.00, 
788.00, 
789.00, 
790.00, 
791.00, 
792.00, 
793.00, 
794.00, 
795.00, 
796.00, 
797.00, 
798.00, 
799.00, 
800.00, 
801.00, 
802.00, 
803.00, 
804.00, 
805.00, 
806.00, 
807.00, 
808.00, 
809.00, 
810.00, 
811.00, 
812.00, 
813.00, 
814.00, 
815.00, 
816.00, 
817.00, 
818.00, 
819.00, 
820.00, 
821.00, 
822.00, 
823.00, 
824.00, 
825.00, 
826.00, 
827.00, 
828.00, 
829.00, 
830.00, 
831.00, 
832.00, 
833.00, 
834.00, 
835.00, 
836.00, 
837.00, 
838.00, 
839.00, 
840.00, 
841.00, 
842.00, 
843.00, 
844.00, 
845.00, 
846.00, 
847.00, 
848.00, 
849.00, 
850.00, 
851.00, 
852.00, 
853.00, 
854.00, 
855.00, 
856.00, 
857.00, 
858.00, 
859.00, 
860.00, 
861.00, 
862.00, 
863.00, 
864.00, 
865.00, 
866.00, 
867.00, 
868.00, 
869.00, 
870.00, 
871.00, 
872.00, 
873.00, 
874.00, 
875.00, 
876.00, 
877.00, 
878.00, 
879.00, 
880.00, 
881.00, 
882.00, 
883.00, 
884.00, 
885.00, 
886.00, 
887.00, 
888.00, 
889.00, 
890.00, 
891.00, 
892.00, 
893.00, 
894.00, 
895.00, 
896.00, 
897.00, 
898.00, 
899.00, 
900.00, 
901.00, 
902.00, 
903.00, 
904.00, 
905.00, 
906.00, 
907.00, 
908.00, 
909.00, 
910.00, 
911.00, 
912.00, 
913.00, 
914.00, 
915.00, 
916.00, 
917.00, 
918.00, 
919.00, 
920.00, 
921.00, 
922.00, 
923.00, 
924.00, 
925.00, 
926.00, 
927.00, 
928.00, 
929.00, 
930.00, 
931.00, 
932.00, 
933.00, 
934.00, 
935.00, 
936.00, 
937.00, 
938.00, 
939.00, 
940.00, 
941.00, 
942.00, 
943.00, 
944.00, 
945.00, 
946.00, 
947.00, 
948.00, 
949.00, 
950.00, 
951.00, 
952.00, 
953.00, 
954.00, 
955.00, 
956.00, 
957.00, 
958.00, 
959.00, 
960.00, 
961.00, 
962.00, 
963.00, 
964.00, 
965.00, 
966.00, 
967.00, 
968.00, 
969.00, 
970.00, 
971.00, 
972.00, 
973.00, 
974.00, 
975.00, 
976.00, 
977.00, 
978.00, 
979.00, 
980.00, 
981.00, 
982.00, 
983.00, 
984.00, 
985.00, 
986.00, 
987.00, 
988.00, 
989.00, 
990.00, 
991.00, 
992.00, 
993.00, 
994.00, 
995.00, 
996.00, 
997.00, 
998.00, 
999.00, 
1000.00,0.0618
1001.00, 
1002.00,0.0612
1003.00, 
1004.00,0.0603
1005.00, 
1006.00,0.0594
1007.00, 
1008.00,0.0586
1009.00, 
1010.00,0.0577
1011.00, 
1012.00,0.0569
1013.00, 
1014.00,0.0560
1015.00, 
1016.00,0.0552
1017.00, 
1018.00,0.0543
1019.00, 
1020.00,0.0536
1021.00, 
1022.00,0.0529
1023.00, 
1024.00,0.0521
1025.00, 
1026.00,0.0514
1027.00, 
1028.00,0.0506
1029.00, 
1030.00,0.0498
1031.00, 
1032.00,0.0491
1033.00, 
1034.00,0.0483
1035.00, 
1036.00,0.0475
1037.00, 
1038.00,0.0469
1039.00, 
1040.00,0.0463
1041.00, 
1042.00,0.0457
1043.00, 
1044.00,0.0450
1045.00, 
1046.00,0.0444
1047.00, 
1048.00,0.0437
1049.00, 
1050.00,0.0431
1051.00, 
1052.00,0.0425
1053.00, 
1054.00,0.0420
1055.00, 
1056.00,0.0414
1057.00, 
1058.00,0.0408
1059.00, 
1060.00,0.0402
1061.00, 
1062.00,0.0397
1063.00, 
1064.00,0.0392
1065.00, 
1066.00,0.0388
1067.00, 
1068.00,0.0383
1069.00, 
1070.00,0.0377
1071.00, 
1072.00,0.0372
1073.00, 
1074.00,0.0368
1075.00, 
1076.00,0.0364
1077.00, 
1078.00,0.0361
1079.00, 
1080.00,0.0357
1081.00, 
1082.00,0.0355
1083.00, 
1084.00,0.0351
1085.00, 
1086.00,0.0349
1087.00, 
1088.00,0.0344
1089.00, 
1090.00,0.0341
1091.00, 
1092.00,0.0337
1093.00, 
1094.00,0.0334
1095.00, 
1096.00,0.0330
1097.00, 
1098.00,0.0328
1099.00, 
1100.00,0.0325
1101.00, 
1102.00,0.0323
1103.00, 
1104.00,0.0320
1105.00, 
1106.00,0.0318
1107.00, 
1108.00,0.0316
1109.00, 
1110.00,0.0313
1111.00, 
1112.00,0.0311
1113.00, 
1114.00,0.0309
1115.00, 
1116.00,0.0310
1117.00, 
1118.00,0.0307
1119.00, 
1120.00,0.0305
1121.00, 
1122.00,0.0302
1123.00, 
1124.00,0.0300
1125.00, 
1126.00,0.0298
1127.00, 
1128.00,0.0295
1129.00, 
1130.00,0.0293
1131.00, 
1132.00,0.0291
1133.00, 
1134.00,0.0290
1135.00, 
1136.00,0.0289
1137.00, 
1138.00,0.0288
1139.00, 
1140.00,0.0286
1141.00, 
1142.00,0.0286
1143.00, 
1144.00,0.0285
1145.00, 
1146.00,0.0285
1147.00, 
1148.00,0.0284
1149.00, 
1150.00,0.0284
1151.00, 
1152.00,0.0282
1153.00, 
1154.00,0.0282
1155.00, 
1156.00,0.0281
1157.00, 
1158.00,0.0281
1159.00, 
1160.00,0.0279
1161.00, 
1162.00,0.0278
1163.00, 
1164.00,0.0277
1165.00, 
1166.00,0.0277
1167.00, 
1168.00,0.0277
1169.00, 
1170.00,0.0277
1171.00, 
1172.00,0.0276
1173.00, 
1174.00,0.0276
1175.00, 
1176.00,0.0276
1177.00, 
1178.00,0.0277
1179.00, 
1180.00,0.0274
1181.00, 
1182.00,0.0274
1183.00, 
1184.00,0.0272
1185.00, 
1186.00,0.0275
1187.00, 
1188.00,0.0275
1189.00, 
1190.00,0.0276
1191.00, 
1192.00,0.0276
1193.00, 
1194.00,0.0275
1195.00, 
1196.00,0.0275
1197.00, 
1198.00,0.0276
1199.00, 
1200.00,0.0277
1201.00, 
1202.00,0.0278
1203.00, 
1204.00,0.0278
1205.00, 
1206.00,0.0277
1207.00, 
1208.00,0.0278
1209.00, 
1210.00,0.0277
1211.00, 
1212.00,0.0277
1213.00, 
1214.00,0.0277
1215.00, 
1216.00,0.0279
1217.00, 
1218.00,0.0280
1219.00, 
1220.00,0.0280
1221.00, 
1222.00,0.0280
1223.00, 
1224.00,0.0282
1225.00, 
1226.00,0.0282
1227.00, 
1228.00,0.0284
1229.00, 
1230.00,0.0283
1231.00, 
1232.00,0.0284
1233.00, 
1234.00,0.0285
1235.00, 
1236.00,0.0286
1237.00, 
1238.00,0.0287
1239.00, 
1240.00,0.0288
1241.00, 
1242.00,0.0289
1243.00, 
1244.00,0.0290
1245.00, 
1246.00,0.0291
1247.00, 
1248.00,0.0292
1249.00, 
1250.00,0.0293
1251.00, 
1252.00,0.0293
1253.00, 
1254.00,0.0294
1255.00, 
1256.00,0.0295
1257.00, 
1258.00,0.0297
1259.00, 
1260.00,0.0298
1261.00, 
1262.00,0.0299
1263.00, 
1264.00,0.0299
1265.00, 
1266.00,0.0300
1267.00, 
1268.00,0.0302
1269.00, 
1270.00,0.0304
1271.00, 
1272.00,0.0305
1273.00, 
1274.00,0.0305
1275.00, 
1276.00,0.0306
1277.00, 
1278.00,0.0307
1279.00, 
1280.00,0.0309
1281.00, 
1282.00,0.0309
1283.00, 
1284.00,0.0310
1285.00, 
1286.00,0.0312
1287.00, 
1288.00,0.0314
1289.00, 
1290.00,0.0316
1291.00, 
1292.00,0.0317
1293.00, 
1294.00,0.0319
1295.00, 
1296.00,0.0322
1297.00, 
1298.00,0.0324
1299.00, 
1300.00,0.0325
1301.00, 
1302.00,0.0326
1303.00, 
1304.00,0.0328
1305.00, 
1306.00,0.0329
1307.00, 
1308.00,0.0329
1309.00, 
1310.00,0.0327
1311.00, 
1312.00,0.0328
1313.00, 
1314.00,0.0329
1315.00, 
1316.00,0.0333
1317.00, 
1318.00,0.0335
1319.00, 
1320.00,0.0341
1321.00, 
1322.00,0.0344
1323.00, 
1324.00,0.0348
1325.00, 
1326.00,0.0349
1327.00, 
1328.00,0.0352
1329.00, 
1330.00,0.0354
1331.00, 
1332.00,0.0357
1333.00, 
1334.00,0.0359
1335.00, 
1336.00,0.0362
1337.00, 
1338.00,0.0364
1339.00, 
1340.00,0.0366
1341.00, 
1342.00,0.0368
1343.00, 
1344.00,0.0370
1345.00, 
1346.00,0.0372
1347.00, 
1348.00,0.0374
1349.00, 
1350.00,0.0373
1351.00, 
1352.00,0.0375
1353.00, 
1354.00,0.0375
1355.00, 
1356.00,0.0379
1357.00, 
1358.00,0.0382
1359.00, 
1360.00,0.0388
1361.00, 
1362.00,0.0392
1363.00, 
1364.00,0.0394
1365.00, 
1366.00,0.0395
1367.00, 
1368.00,0.0397
1369.00, 
1370.00,0.0398
1371.00, 
1372.00,0.0401
1373.00, 
1374.00,0.0403
1375.00, 
1376.00,0.0407
1377.00, 
1378.00,0.0409
1379.00, 
1380.00,0.0412
1381.00, 
1382.00,0.0414
1383.00, 
1384.00,0.0416
1385.00, 
1386.00,0.0419
1387.00, 
1388.00,0.0423
1389.00, 
1390.00,0.0427
1391.00, 
1392.00,0.0430
1393.00, 
1394.00,0.0432
1395.00, 
1396.00,0.0433
1397.00, 
1398.00,0.0435
1399.00, 
1400.00,0.0437
1401.00, 
1402.00,0.0440
1403.00, 
1404.00,0.0442
1405.00, 
1406.00,0.0445
1407.00, 
1408.00,0.0447
1409.00, 
1410.00,0.0449
1411.00, 
1412.00,0.0453
1413.00, 
1414.00,0.0457
1415.00, 
1416.00,0.0461
1417.00, 
1418.00,0.0465
1419.00, 
1420.00,0.0468
1421.00, 
1422.00,0.0471
1423.00, 
1424.00,0.0474
1425.00, 
1426.00,0.0478
1427.00, 
1428.00,0.0482
1429.00, 
1430.00,0.0487
1431.00, 
1432.00,0.0489
1433.00, 
1434.00,0.0493
1435.00, 
1436.00,0.0495
1437.00, 
1438.00,0.0499
1439.00, 
1440.00,0.0500
1441.00, 
1442.00,0.0505
1443.00, 
1444.00,0.0507
1445.00, 
1446.00,0.0511
1447.00, 
1448.00,0.0514
1449.00, 
1450.00,0.0520
1451.00, 
1452.00,0.0524
1453.00, 
1454.00,0.0528
1455.00, 
1456.00,0.0530
1457.00, 
1458.00,0.0534
1459.00, 
1460.00,0.0537
1461.00, 
1462.00,0.0541
1463.00, 
1464.00,0.0545
1465.00, 
1466.00,0.0549
1467.00, 
1468.00,0.0551
1469.00, 
1470.00,0.0555
1471.00, 
1472.00,0.0558
1473.00, 
1474.00,0.0564
1475.00, 
1476.00,0.0567
1477.00, 
1478.00,0.0572
1479.00, 
1480.00,0.0576
1481.00, 
1482.00,0.0581
1483.00, 
1484.00,0.0585
1485.00, 
1486.00,0.0589
1487.00, 
1488.00,0.0592
1489.00, 
1490.00,0.0597
1491.00, 
1492.00,0.0601
1493.00, 
1494.00,0.0605
1495.00, 
1496.00,0.0609
1497.00, 
1498.00,0.0612
1499.00, 
1500.00,0.0616
1501.00, 
1502.00,0.0619
1503.00, 
1504.00,0.0621
1505.00, 
1506.00,0.0624
1507.00, 
1508.00,0.0628
1509.00, 
1510.00,0.0635
1511.00, 
1512.00,0.0645
1513.00, 
1514.00,0.0652
1515.00, 
1516.00,0.0655
1517.00, 
1518.00,0.0654
1519.00, 
1520.00,0.0657
1521.00, 
1522.00,0.0660
1523.00, 
1524.00,0.0664
1525.00, 
1526.00,0.0668
1527.00, 
1528.00,0.0673
1529.00, 
1530.00,0.0678
1531.00, 
1532.00,0.0683
1533.00, 
1534.00,0.0686
1535.00, 
1536.00,0.0688
1537.00, 
1538.00,0.0690
1539.00, 
1540.00,0.0696
1541.00, 
1542.00,0.0702
1543.00, 
1544.00,0.0708
1545.00, 
1546.00,0.0712
1547.00, 
1548.00,0.0715
1549.00, 
1550.00,0.0718
1551.00, 
1552.00,0.0723
1553.00, 
1554.00,0.0727
1555.00, 
1556.00,0.0732
1557.00, 
1558.00,0.0735
1559.00, 
1560.00,0.0739
1561.00, 
1562.00,0.0743
1563.00, 
1564.00,0.0749
1565.00, 
1566.00,0.0753
1567.00, 
1568.00,0.0758
1569.00, 
1570.00,0.0761
1571.00, 
1572.00,0.0766
1573.00, 
1574.00,0.0770
1575.00, 
1576.00,0.0776
1577.00, 
1578.00,0.0779
1579.00, 
1580.00,0.0782
1581.00, 
1582.00,0.0785
1583.00, 
1584.00,0.0791
1585.00, 
1586.00,0.0797
1587.00, 
1588.00,0.0802
1589.00, 
1590.00,0.0807
1591.00, 
1592.00,0.0811
1593.00, 
1594.00,0.0817
1595.00, 
1596.00,0.0822
1597.00, 
1598.00,0.0826
1599.00, 
1600.00,0.0831
1601.00, 
1602.00,0.0834
1603.00, 
1604.00,0.0841
1605.00, 
1606.00,0.0844
1607.00, 
1608.00,0.0849
1609.00, 
1610.00,0.0852
1611.00, 
1612.00,0.0859
1613.00, 
1614.00,0.0863
1615.00, 
1616.00,0.0868
1617.00, 
1618.00,0.0871
1619.00, 
1620.00,0.0875
1621.00, 
1622.00,0.0881
1623.00, 
1624.00,0.0886
1625.00, 
1626.00,0.0887
1627.00, 
1628.00,0.0890
1629.00, 
1630.00,0.0893
1631.00, 
1632.00,0.0901
1633.00, 
1634.00,0.0906
1635.00, 
1636.00,0.0910
1637.00, 
1638.00,0.0909
1639.00, 
1640.00,0.0914
1641.00, 
1642.00,0.0918
1643.00, 
1644.00,0.0927
1645.00, 
1646.00,0.0932
1647.00, 
1648.00,0.0936
1649.00, 
1650.00,0.0948
1651.00, 
1652.00,0.0959
1653.00, 
1654.00,0.0970
1655.00, 
1656.00,0.0975
1657.00, 
1658.00,0.0980
1659.00, 
1660.00,0.0984
1661.00, 
1662.00,0.0988
1663.00, 
1664.00,0.0992
1665.00, 
1666.00,0.0995
1667.00, 
1668.00,0.0998
1669.00, 
1670.00,0.1001
1671.00, 
1672.00,0.1005
1673.00, 
1674.00,0.1009
1675.00, 
1676.00,0.1013
1677.00, 
1678.00,0.1017
1679.00, 
1680.00,0.1021
1681.00, 
1682.00,0.1024
1683.00, 
1684.00,0.1026
1685.00, 
1686.00,0.1029
1687.00, 
1688.00,0.1033
1689.00, 
1690.00,0.1037
1691.00, 
1692.00,0.1041
1693.00, 
1694.00,0.1045
1695.00, 
1696.00,0.1049
1697.00, 
1698.00,0.1053
1699.00, 
1700.00,0.1055
1701.00, 
1702.00,0.1058
1703.00, 
1704.00,0.1061
1705.00, 
1706.00,0.1064
1707.00, 
1708.00,0.1067
1709.00, 
1710.00,0.1071
1711.00, 
1712.00,0.1075
1713.00, 
1714.00,0.1078
1715.00, 
1716.00,0.1082
1717.00, 
1718.00,0.1084
1719.00, 
1720.00,0.1087
1721.00, 
1722.00,0.1090
1723.00, 
1724.00,0.1094
1725.00, 
1726.00,0.1097
1727.00, 
1728.00,0.1101
1729.00, 
1730.00,0.1104
1731.00, 
1732.00,0.1107
1733.00, 
1734.00,0.1112
1735.00, 
1736.00,0.1114
1737.00, 
1738.00,0.1117
1739.00, 
1740.00,0.1118
1741.00, 
1742.00,0.1122
1743.00, 
1744.00,0.1126
1745.00, 
1746.00,0.1130
1747.00, 
1748.00,0.1133
1749.00, 
1750.00,0.1135
1751.00, 
1752.00,0.1139
1753.00, 
1754.00,0.1143
1755.00, 
1756.00,0.1146
1757.00, 
1758.00,0.1148
1759.00, 
1760.00,0.1150
1761.00, 
1762.00,0.1153
1763.00, 
1764.00,0.1156
1765.00, 
1766.00,0.1159
1767.00, 
1768.00,0.1163
1769.00, 
1770.00,0.1166
1771.00, 
1772.00,0.1169
1773.00, 
1774.00,0.1172
1775.00, 
1776.00,0.1175
1777.00, 
1778.00,0.1177
1779.00, 
1780.00,0.1180
1781.00, 
1782.00,0.1184
1783.00, 
1784.00,0.1187
1785.00, 
1786.00,0.1190
1787.00, 
1788.00,0.1193
1789.00, 
1790.00,0.1195
1791.00, 
1792.00,0.1199
1793.00, 
1794.00,0.1201
1795.00, 
1796.00,0.1203
1797.00, 
1798.00,0.1204
1799.00, 
1800.00,0.1206
1801.00, 
1802.00,0.1209
1803.00, 
1804.00,0.1215
1805.00, 
1806.00,0.1219
1807.00, 
1808.00,0.1223
1809.00, 
1810.00,0.1227
1811.00, 
1812.00,0.1230
1813.00, 
1814.00,0.1233
1815.00, 
1816.00,0.1236
1817.00, 
1818.00,0.1238
1819.00, 
1820.00,0.1241
1821.00, 
1822.00,0.1243
1823.00, 
1824.00,0.1248
1825.00, 
1826.00,0.1251
1827.00, 
1828.00,0.1252
1829.00, 
1830.00,0.1252
1831.00, 
1832.00,0.1253
1833.00, 
1834.00,0.1254
1835.00, 
1836.00,0.1258
1837.00, 
1838.00,0.1262
1839.00, 
1840.00,0.1268
1841.00, 
1842.00,0.1271
1843.00, 
1844.00,0.1274
1845.00, 
1846.00,0.1276
1847.00, 
1848.00,0.1281
1849.00, 
1850.00,0.1285
1851.00, 
1852.00,0.1287
1853.00, 
1854.00,0.1287
1855.00, 
1856.00,0.1287
1857.00, 
1858.00,0.1287
1859.00, 
1860.00,0.1288
1861.00, 
1862.00,0.1290
1863.00, 
1864.00,0.1289
1865.00, 
1866.00,0.1286
1867.00, 
1868.00,0.1284
1869.00, 
1870.00,0.1287
1871.00, 
1872.00,0.1293
1873.00, 
1874.00,0.1299
1875.00, 
1876.00,0.1302
1877.00, 
1878.00,0.1302
1879.00, 
1880.00,0.1303
1881.00, 
1882.00,0.1305
1883.00, 
1884.00,0.1306
1885.00, 
1886.00,0.1307
1887.00, 
1888.00,0.1307
1889.00, 
1890.00,0.1310
1891.00, 
1892.00,0.1312
1893.00, 
1894.00,0.1316
1895.00, 
1896.00,0.1318
1897.00, 
1898.00,0.1321
1899.00, 
1900.00,0.1325
1901.00, 
1902.00,0.1331
1903.00, 
1904.00,0.1335
1905.00, 
1906.00,0.1335
1907.00, 
1908.00,0.1334
1909.00, 
1910.00,0.1332
1911.00, 
1912.00,0.1330
1913.00, 
1914.00,0.1328
1915.00, 
1916.00,0.1326
1917.00, 
1918.00,0.1326
1919.00, 
1920.00,0.1326
1921.00, 
1922.00,0.1328
1923.00, 
1924.00,0.1331
1925.00, 
1926.00,0.1333
1927.00, 
1928.00,0.1336
1929.00, 
1930.00,0.1339
1931.00, 
1932.00,0.1344
1933.00, 
1934.00,0.1345
1935.00, 
1936.00,0.1346
1937.00, 
1938.00,0.1344
1939.00, 
1940.00,0.1344
1941.00, 
1942.00,0.1341
1943.00, 
1944.00,0.1341
1945.00, 
1946.00,0.1343
1947.00, 
1948.00,0.1345
1949.00, 
1950.00,0.1347
1951.00, 
1952.00,0.1347
1953.00, 
1954.00,0.1347
1955.00, 
1956.00,0.1348
1957.00, 
1958.00,0.1348
1959.00, 
1960.00,0.1348
1961.00, 
1962.00,0.1348
1963.00, 
1964.00,0.1350
1965.00, 
1966.00,0.1352
1967.00, 
1968.00,0.1351
1969.00, 
1970.00,0.1351
1971.00, 
1972.00,0.1351
1973.00, 
1974.00,0.1352
1975.00, 
1976.00,0.1352
1977.00, 
1978.00,0.1353
1979.00, 
1980.00,0.1354
1981.00, 
1982.00,0.1354
1983.00, 
1984.00,0.1355
1985.00, 
1986.00,0.1356
1987.00, 
1988.00,0.1358
1989.00, 
1990.00,0.1357
1991.00, 
1992.00,0.1358
1993.00, 
1994.00,0.1357
1995.00, 
1996.00,0.1358
1997.00, 
1998.00,0.1356
1999.00, 
2000.00,0.1356
2001.00, 
2002.00,0.1355
2003.00, 
2004.00,0.1356
2005.00, 
2006.00,0.1356
2007.00, 
2008.00,0.1357
2009.00, 
2010.00,0.1359
2011.00, 
2012.00,0.1359
2013.00, 
2014.00,0.1361
2015.00, 
2016.00,0.1362
2017.00, 
2018.00,0.1363
2019.00, 
2020.00,0.1363
2021.00, 
2022.00,0.1362
2023.00, 
2024.00,0.1362
2025.00, 
2026.00,0.1363
2027.00, 
2028.00,0.1364
2029.00, 
2030.00,0.1364
2031.00, 
2032.00,0.1364
2033.00, 
2034.00,0.1365
2035.00, 
2036.00,0.1367
2037.00, 
2038.00,0.1366
2039.00, 
2040.00,0.1366
2041.00, 
2042.00,0.1366
2043.00, 
2044.00,0.1365
2045.00, 
2046.00,0.1364
2047.00, 
2048.00,0.1364
2049.00, 
2050.00,0.1366
2051.00, 
2052.00,0.1369
2053.00, 
2054.00,0.1371
2055.00, 
2056.00,0.1373
2057.00, 
2058.00,0.1374
2059.00, 
2060.00,0.1376
2061.00, 
2062.00,0.1375
2063.00, 
2064.00,0.1375
2065.00, 
2066.00,0.1373
2067.00, 
2068.00,0.1374
2069.00, 
2070.00,0.1374
2071.00, 
2072.00,0.1377
2073.00, 
2074.00,0.1377
2075.00, 
2076.00,0.1377
2077.00, 
2078.00,0.1377
2079.00, 
2080.00,0.1378
2081.00, 
2082.00,0.1379
2083.00, 
2084.00,0.1379
2085.00, 
2086.00,0.1379
2087.00, 
2088.00,0.1379
2089.00, 
2090.00,0.1379
2091.00, 
2092.00,0.1379
2093.00, 
2094.00,0.1379
2095.00, 
2096.00,0.1378
2097.00, 
2098.00,0.1377
2099.00, 
2100.00,0.1376
2101.00, 
2102.00,0.1376
2103.00, 
2104.00,0.1377
2105.00, 
2106.00,0.1377
2107.00, 
2108.00,0.1376
2109.00, 
2110.00,0.1376
2111.00, 
2112.00,0.1376
2113.00, 
2114.00,0.1376
2115.00, 
2116.00,0.1375
2117.00, 
2118.00,0.1374
2119.00, 
2120.00,0.1374
2121.00, 
2122.00,0.1375
2123.00, 
2124.00,0.1374
2125.00, 
2126.00,0.1373
2127.00, 
2128.00,0.1371
2129.00, 
2130.00,0.1371
2131.00, 
2132.00,0.1370
2133.00, 
2134.00,0.1368
2135.00, 
2136.00,0.1367
2137.00, 
2138.00,0.1366
2139.00, 
2140.00,0.1367
2141.00, 
2142.00,0.1368
2143.00, 
2144.00,0.1369
2145.00, 
2146.00,0.1369
2147.00, 
2148.00,0.1367
2149.00, 
2150.00,0.1366
2151.00, 
2152.00,0.1365
2153.00, 
2154.00,0.1365
2155.00, 
2156.00,0.1365
2157.00, 
2158.00,0.1365
2159.00, 
2160.00,0.1363
2161.00, 
2162.00,0.1362
2163.00, 
2164.00,0.1360
2165.00, 
2166.00,0.1360
2167.00, 
2168.00,0.1361
2169.00, 
2170.00,0.1359
2171.00, 
2172.00,0.1360
2173.00, 
2174.00,0.1360
2175.00, 
2176.00,0.1361
2177.00, 
2178.00,0.1360
2179.00, 
2180.00,0.1360
2181.00, 
2182.00,0.1362
2183.00, 
2184.00,0.1359
2185.00, 
2186.00,0.1360
2187.00, 
2188.00,0.1359
2189.00, 
2190.00,0.1361
2191.00, 
2192.00,0.1359
2193.00, 
2194.00,0.1359
2195.00, 
2196.00,0.1358
2197.00, 
2198.00,0.1360
2199.00, 
2200.00,0.1362
2201.00, 
2202.00,0.1364
2203.00, 
2204.00,0.1362
2205.00, 
2206.00,0.1362
2207.00, 
2208.00,0.1359
2209.00, 
2210.00,0.1363
2211.00, 
2212.00,0.1363
2213.00, 
2214.00,0.1362
2215.00, 
2216.00,0.1360
2217.00, 
2218.00,0.1357
2219.00, 
2220.00,0.1355
2221.00, 
2222.00,0.1352
2223.00, 
2224.00,0.1352
2225.00, 
2226.00,0.1352
2227.00, 
2228.00,0.1352
2229.00, 
2230.00,0.1350
2231.00, 
2232.00,0.1349
2233.00, 
2234.00,0.1349
2235.00, 
2236.00,0.1348
2237.00, 
2238.00,0.1346
2239.00, 
2240.00,0.1344
2241.00, 
2242.00,0.1343
2243.00, 
2244.00,0.1341
2245.00, 
2246.00,0.1340
2247.00, 
2248.00,0.1339
2249.00, 
2250.00,0.1338
2251.00, 
2252.00,0.1338
2253.00, 
2254.00,0.1337
2255.00, 
2256.00,0.1333
2257.00, 
2258.00,0.1331
2259.00, 
2260.00,0.1331
2261.00, 
2262.00,0.1335
2263.00, 
2264.00,0.1336
2265.00, 
2266.00,0.1335
2267.00, 
2268.00,0.1334
2269.00, 
2270.00,0.1334
2271.00, 
2272.00,0.1333
2273.00, 
2274.00,0.1333
2275.00, 
2276.00,0.1329
2277.00, 
2278.00,0.1328
2279.00, 
2280.00,0.1326
2281.00, 
2282.00,0.1325
2283.00, 
2284.00,0.1325
2285.00, 
2286.00,0.1322
2287.00, 
2288.00,0.1321
2289.00, 
2290.00,0.1319
2291.00, 
2292.00,0.1319
2293.00, 
2294.00,0.1319
2295.00, 
2296.00,0.1321
2297.00, 
2298.00,0.1321
2299.00, 
2300.00,0.1319
2301.00, 
2302.00,0.1317
2303.00, 
2304.00,0.1314
2305.00, 
2306.00,0.1314
2307.00, 
2308.00,0.1312
2309.00, 
2310.00,0.1311
2311.00, 
2312.00,0.1308
2313.00, 
2314.00,0.1305
2315.00, 
2316.00,0.1303
2317.00, 
2318.00,0.1304
2319.00, 
2320.00,0.1305
2321.00, 
2322.00,0.1304
2323.00, 
2324.00,0.1301
2325.00, 
2326.00,0.1298
2327.00, 
2328.00,0.1299
2329.00, 
2330.00,0.1298
2331.00, 
2332.00,0.1299
2333.00, 
2334.00,0.1297
2335.00, 
2336.00,0.1296
2337.00, 
2338.00,0.1292
2339.00, 
2340.00,0.1289
2341.00, 
2342.00,0.1289
2343.00, 
2344.00,0.1289
2345.00, 
2346.00,0.1287
2347.00, 
2348.00,0.1285
2349.00, 
2350.00,0.1283
2351.00, 
2352.00,0.1283
2353.00, 
2354.00,0.1283
2355.00, 
2356.00,0.1284
2357.00, 
2358.00,0.1282
2359.00, 
2360.00,0.1280
2361.00, 
2362.00,0.1275
2363.00, 
2364.00,0.1276
2365.00, 
2366.00,0.1276
2367.00, 
2368.00,0.1276
2369.00, 
2370.00,0.1273
2371.00, 
2372.00,0.1276
2373.00, 
2374.00,0.1277
2375.00, 
2376.00,0.1275
2377.00, 
2378.00,0.1274
2379.00, 
2380.00,0.1272
2381.00, 
2382.00,0.1272
2383.00, 
2384.00,0.1266
2385.00, 
2386.00,0.1264
2387.00, 
2388.00,0.1262
2389.00, 
2390.00,0.1262
2391.00, 
2392.00,0.1260
2393.00, 
2394.00,0.1256
2395.00, 
2396.00,0.1256
2397.00, 
2398.00,0.1255
2399.00, 
2400.00,0.1255
2401.00, 
2402.00,0.1254
2403.00, 
2404.00,0.1253
2405.00, 
2406.00,0.1251
2407.00, 
2408.00,0.1250
2409.00, 
2410.00,0.1249
2411.00, 
2412.00,0.1250
2413.00, 
2414.00,0.1250
2415.00, 
2416.00,0.1249
2417.00, 
2418.00,0.1248
2419.00, 
2420.00,0.1246
2421.00, 
2422.00,0.1245
2423.00, 
2424.00,0.1241
2425.00, 
2426.00,0.1239
2427.00, 
2428.00,0.1236
2429.00, 
2430.00,0.1236
2431.00, 
2432.00,0.1237
2433.00, 
2434.00,0.1235
2435.00, 
2436.00,0.1233
2437.00, 
2438.00,0.1232
2439.00, 
2440.00,0.1233
2441.00, 
2442.00,0.1232
2443.00, 
2444.00,0.1231
2445.00, 
2446.00,0.1229
2447.00, 
2448.00,0.1232
2449.00, 
2450.00,0.1232
2451.00, 
2452.00,0.1232
2453.00, 
2454.00,0.1230
2455.00, 
2456.00,0.1230
2457.00, 
2458.00,0.1230
2459.00, 
2460.00,0.1227
2461.00, 
2462.00,0.1226
2463.00, 
2464.00,0.1223
2465.00, 
2466.00,0.1221
2467.00, 
2468.00,0.1217
2469.00, 
2470.00,0.1218
2471.00, 
2472.00,0.1217
2473.00, 
2474.00,0.1216
2475.00, 
2476.00,0.1212
2477.00, 
2478.00,0.1210
2479.00, 
2480.00,0.1210
2481.00, 
2482.00,0.1210
2483.00, 
2484.00,0.1214
2485.00, 
2486.00,0.1214
2487.00, 
2488.00,0.1217
2489.00, 
2490.00,0.1211
2491.00, 
2492.00,0.1209
2493.00, 
2494.00,0.1205
2495.00, 
2496.00,0.1203
2497.00, 
2498.00,0.1201
2499.00, 
2500.00,0.1204
2501.00, 
2502.00,0.1207
2503.00, 
2504.00,0.1210
2505.00, 
2506.00,0.1209
2507.00, 
2508.00,0.1208
2509.00, 
2510.00,0.1208
2511.00, 
2512.00,0.1209
2513.00, 
2514.00,0.1209
2515.00, 
2516.00,0.1208
2517.00, 
2518.00,0.1207
2519.00, 
2520.00,0.1206
2521.00, 
2522.00,0.1205
2523.00, 
2524.00,0.1203
2525.00, 
2526.00,0.1201
2527.00, 
2528.00,0.1200
2529.00, 
2530.00,0.1198
2531.00, 
2532.00,0.1196
2533.00, 
2534.00,0.1195
2535.00, 
2536.00,0.1194
2537.00, 
2538.00,0.1194
2539.00, 
2540.00,0.1192
2541.00, 
2542.00,0.1192
2543.00, 
2544.00,0.1188
2545.00, 
2546.00,0.1187
2547.00, 
2548.00,0.1188
2549.00, 
2550.00,0.1187
2551.00, 
2552.00,0.1186
2553.00, 
2554.00,0.1184
2555.00, 
2556.00,0.1187
2557.00, 
2558.00,0.1187
2559.00, 
2560.00,0.1183
2561.00, 
2562.00,0.1180
2563.00, 
2564.00,0.1179
2565.00, 
2566.00,0.1184
2567.00, 
2568.00,0.1179
2569.00, 
2570.00,0.1171
2571.00, 
2572.00,0.1164
2573.00, 
2574.00,0.1159
2575.00, 
2576.00,0.1152
2577.00, 
2578.00,0.1150
2579.00, 
2580.00,0.1150
2581.00, 
2582.00,0.1154
2583.00, 
2584.00,0.1157
2585.00, 
2586.00,0.1159
2587.00, 
2588.00,0.1162
2589.00, 
2590.00,0.1162
2591.00, 
2592.00,0.1159
2593.00, 
2594.00,0.1153
2595.00, 
2596.00,0.1141
2597.00, 
2598.00,0.1137
2599.00, 
2600.00,0.1135
2601.00, 
2602.00,0.1143
2603.00, 
2604.00,0.1151
2605.00, 
2606.00,0.1160
2607.00, 
2608.00,0.1160
2609.00, 
2610.00,0.1156
2611.00, 
2612.00,0.1153
2613.00, 
2614.00,0.1146
2615.00, 
2616.00,0.1144
2617.00, 
2618.00,0.1142
2619.00, 
2620.00,0.1144
2621.00, 
2622.00,0.1138
2623.00, 
2624.00,0.1133
2625.00, 
2626.00,0.1127
2627.00, 
2628.00,0.1127
2629.00, 
2630.00,0.1126
2631.00, 
2632.00,0.1123
2633.00, 
2634.00,0.1127
2635.00, 
2636.00,0.1131
2637.00, 
2638.00,0.1140
2639.00, 
2640.00,0.1143
2641.00, 
2642.00,0.1139
2643.00, 
2644.00,0.1138
2645.00, 
2646.00,0.1130
2647.00, 
2648.00,0.1124
2649.00, 
2650.00,0.1112
2651.00, 
2652.00,0.1106
2653.00, 
2654.00,0.1101
2655.00, 
2656.00,0.1101
2657.00, 
2658.00,0.1106
2659.00, 
2660.00,0.1098
2661.00, 
2662.00,0.1098
2663.00, 
2664.00,0.1104
2665.00, 
2666.00,0.1139
2667.00, 
2668.00,0.1164
2669.00, 
2670.00,0.1187
2671.00, 
2672.00,0.1200
2673.00, 
2674.00,0.1216
2675.00, 
2676.00,0.1221
2677.00, 
2678.00,0.1237
2679.00, 
2680.00,0.1251
2681.00, 
2682.00,0.1277
2683.00, 
2684.00,0.1292
2685.00, 
2686.00,0.1327
2687.00, 
2688.00,0.1359
2689.00, 
2690.00,0.1412
2691.00, 
2692.00,0.1481
2693.00, 
2694.00,0.1552
2695.00, 
2696.00,0.1586
2697.00, 
2698.00,0.1590
2699.00, 
2700.00,0.1644
2701.00, 
2702.00,0.1699
2703.00, 
2704.00,0.1733
2705.00, 
2706.00,0.1764
2707.00, 
2708.00,0.1758
2709.00, 
2710.00,0.1743
2711.00, 
2712.00,0.1728
2713.00, 
2714.00,0.1734
2715.00, 
2716.00,0.1729
2717.00, 
2718.00,0.1705
2719.00, 
2720.00,0.1691
2721.00, 
2722.00,0.1668
2723.00, 
2724.00,0.1642
2725.00, 
2726.00,0.1618
2727.00, 
2728.00,0.1610
2729.00, 
2730.00,0.1589
2731.00, 
2732.00,0.1566
2733.00, 
2734.00,0.1538
2735.00, 
2736.00,0.1515
2737.00, 
2738.00,0.1488
2739.00, 
2740.00,0.1480
2741.00, 
2742.00,0.1477
2743.00, 
2744.00,0.1473
2745.00, 
2746.00,0.1471
2747.00, 
2748.00,0.1467
2749.00, 
2750.00,0.1452
2751.00, 
2752.00,0.1430
2753.00, 
2754.00,0.1407
2755.00, 
2756.00,0.1382
2757.00, 
2758.00,0.1357
2759.00, 
2760.00,0.1343
2761.00, 
2762.00,0.1337
2763.00, 
2764.00,0.1321
2765.00, 
2766.00,0.1313
2767.00, 
2768.00,0.1304
2769.00, 
2770.00,0.1291
2771.00, 
2772.00,0.1279
2773.00, 
2774.00,0.1271
2775.00, 
2776.00,0.1254
2777.00, 
2778.00,0.1243
2779.00, 
2780.00,0.1226
2781.00, 
2782.00,0.1212
2783.00, 
2784.00,0.1204
2785.00, 
2786.00,0.1198
2787.00, 
2788.00,0.1192
2789.00, 
2790.00,0.1190
2791.00, 
2792.00,0.1183
2793.00, 
2794.00,0.1175
2795.00, 
2796.00,0.1164
2797.00, 
2798.00,0.1153
2799.00, 
2800.00,0.1140
2801.00, 
2802.00,0.1132
2803.00, 
2804.00,0.1123
2805.00, 
2806.00,0.1117
2807.00, 
2808.00,0.1111
2809.00, 
2810.00,0.1107
2811.00, 
2812.00,0.1100
2813.00, 
2814.00,0.1094
2815.00, 
2816.00,0.1090
2817.00, 
2818.00,0.1085
2819.00, 
2820.00,0.1082
2821.00, 
2822.00,0.1079
2823.00, 
2824.00,0.1075
2825.00, 
2826.00,0.1072
2827.00, 
2828.00,0.1069
2829.00, 
2830.00,0.1064
2831.00, 
2832.00,0.1062
2833.00, 
2834.00,0.1059
2835.00, 
2836.00,0.1055
2837.00, 
2838.00,0.1054
2839.00, 
2840.00,0.1052
2841.00, 
2842.00,0.1048
2843.00, 
2844.00,0.1045
2845.00, 
2846.00,0.1041
2847.00, 
2848.00,0.1039
2849.00, 
2850.00,0.1035
2851.00, 
2852.00,0.1033
2853.00, 
2854.00,0.1030
2855.00, 
2856.00,0.1029
2857.00, 
2858.00,0.1025
2859.00, 
2860.00,0.1023
2861.00, 
2862.00,0.1021
2863.00, 
2864.00,0.1018
2865.00, 
2866.00,0.1016
2867.00, 
2868.00,0.1014
2869.00, 
2870.00,0.1012
2871.00, 
2872.00,0.1011
2873.00, 
2874.00,0.1010
2875.00, 
2876.00,0.1008
2877.00, 
2878.00,0.1007
2879.00, 
2880.00,0.1006
2881.00, 
2882.00,0.1004
2883.00, 
2884.00,0.1003
2885.00, 
2886.00,0.1003
2887.00, 
2888.00,0.1001
2889.00, 
2890.00,0.0997
2891.00, 
2892.00,0.0995
2893.00, 
2894.00,0.0993
2895.00, 
2896.00,0.0991
2897.00, 
2898.00,0.0989
2899.00, 
2900.00,0.0988
2901.00, 
2902.00,0.0988
2903.00, 
2904.00,0.0987
2905.00, 
2906.00,0.0984
2907.00, 
2908.00,0.0982
2909.00, 
2910.00,0.0981
2911.00, 
2912.00,0.0978
2913.00, 
2914.00,0.0977
2915.00, 
2916.00,0.0975
2917.00, 
2918.00,0.0974
2919.00, 
2920.00,0.0972
2921.00, 
2922.00,0.0970
2923.00, 
2924.00,0.0968
2925.00, 
2926.00,0.0966
2927.00, 
2928.00,0.0966
2929.00, 
2930.00,0.0964
2931.00, 
2932.00,0.0962
2933.00, 
2934.00,0.0961
2935.00, 
2936.00,0.0960
2937.00, 
2938.00,0.0958
2939.00, 
2940.00,0.0956
2941.00, 
2942.00,0.0956
2943.00, 
2944.00,0.0954
2945.00, 
2946.00,0.0953
2947.00, 
2948.00,0.0951
2949.00, 
2950.00,0.0951
2951.00, 
2952.00,0.0947
2953.00, 
2954.00,0.0944
2955.00, 
2956.00,0.0944
2957.00, 
2958.00,0.0941
2959.00, 
2960.00,0.0939
2961.00, 
2962.00,0.0939
2963.00, 
2964.00,0.0937
2965.00, 
2966.00,0.0933
2967.00, 
2968.00,0.0930
2969.00, 
2970.00,0.0929
2971.00, 
2972.00,0.0928
2973.00, 
2974.00,0.0931
2975.00, 
2976.00,0.0934
2977.00, 
2978.00,0.0934
2979.00, 
2980.00,0.0934
2981.00, 
2982.00,0.0934
2983.00, 
2984.00,0.0930
2985.00, 
2986.00,0.0927
2987.00, 
2988.00,0.0926
2989.00, 
2990.00,0.0921
2991.00, 
2992.00,0.0919
2993.00, 
2994.00,0.0916
2995.00, 
2996.00,0.0913
2997.00, 
2998.00,0.0912
2999.00, 
3000.00,0.0914
3001.00, 
3002.00,0.0913
3003.00, 
3004.00,0.0914
3005.00, 
3006.00,0.0913
3007.00, 
3008.00,0.0913
3009.00, 
3010.00,0.0912
3011.00, 
3012.00,0.0912
3013.00, 
3014.00,0.0910
3015.00, 
3016.00,0.0908
3017.00, 
3018.00,0.0907
3019.00, 
3020.00,0.0906
3021.00, 
3022.00,0.0905
3023.00, 
3024.00,0.0903
3025.00, 
3026.00,0.0902
3027.00, 
3028.00,0.0901
3029.00, 
3030.00,0.0899
3031.00, 
3032.00,0.0899
3033.00, 
3034.00,0.0899
3035.00, 
3036.00,0.0898
3037.00, 
3038.00,0.0896
3039.00, 
3040.00,0.0895
3041.00, 
3042.00,0.0893
3043.00, 
3044.00,0.0892
3045.00, 
3046.00,0.0891
3047.00, 
3048.00,0.0890
3049.00, 
3050.00,0.0889
3051.00, 
3052.00,0.0888
3053.00, 
3054.00,0.0886
3055.00, 
3056.00,0.0886
3057.00, 
3058.00,0.0884
3059.00, 
3060.00,0.0883
3061.00, 
3062.00,0.0882
3063.00, 
3064.00,0.0880
3065.00, 
3066.00,0.0878
3067.00, 
3068.00,0.0877
3069.00, 
3070.00,0.0877
3071.00, 
3072.00,0.0877
3073.00, 
3074.00,0.0875
3075.00, 
3076.00,0.0874
3077.00, 
3078.00,0.0872
3079.00, 
3080.00,0.0870
3081.00, 
3082.00,0.0869
3083.00, 
3084.00,0.0870
3085.00, 
3086.00,0.0869
3087.00, 
3088.00,0.0866
3089.00, 
3090.00,0.0864
3091.00, 
3092.00,0.0863
3093.00, 
3094.00,0.0862
3095.00, 
3096.00,0.0862
3097.00, 
3098.00,0.0861
3099.00, 
3100.00,0.0859
3101.00, 
3102.00,0.0858
3103.00, 
3104.00,0.0857
3105.00, 
3106.00,0.0856
3107.00, 
3108.00,0.0854
3109.00, 
3110.00,0.0854
3111.00, 
3112.00,0.0854
3113.00, 
3114.00,0.0852
3115.00, 
3116.00,0.0852
3117.00, 
3118.00,0.0853
3119.00, 
3120.00,0.0850
3121.00, 
3122.00,0.0849
3123.00, 
3124.00,0.0847
3125.00, 
3126.00,0.0846
3127.00, 
3128.00,0.0845
3129.00, 
3130.00,0.0843
3131.00, 
3132.00,0.0841
3133.00, 
3134.00,0.0839
3135.00, 
3136.00,0.0838
3137.00, 
3138.00,0.0836
3139.00, 
3140.00,0.0838
3141.00, 
3142.00,0.0838
3143.00, 
3144.00,0.0839
3145.00, 
3146.00,0.0835
3147.00, 
3148.00,0.0838
3149.00, 
3150.00,0.0837
3151.00, 
3152.00,0.0832
3153.00, 
3154.00,0.0831
3155.00, 
3156.00,0.0830
3157.00, 
3158.00,0.0826
3159.00, 
3160.00,0.0826
3161.00, 
3162.00,0.0825
3163.00, 
3164.00,0.0827
3165.00, 
3166.00,0.0823
3167.00, 
3168.00,0.0823
3169.00, 
3170.00,0.0826
3171.00, 
3172.00,0.0825
3173.00, 
3174.00,0.0821
3175.00, 
3176.00,0.0820
3177.00, 
3178.00,0.0817
3179.00, 
3180.00,0.0814
3181.00, 
3182.00,0.0810
3183.00, 
3184.00,0.0808
3185.00, 
3186.00,0.0806
3187.00, 
3188.00,0.0805
3189.00, 
3190.00,0.0802
3191.00, 
3192.00,0.0803
3193.00, 
3194.00,0.0798
3195.00, 
3196.00,0.0793
3197.00, 
3198.00,0.0794
3199.00, 
3200.00,0.0793
3201.00, 
3202.00,0.0790
3203.00, 
3204.00,0.0789
3205.00, 
3206.00,0.0789
3207.00, 
3208.00,0.0786
3209.00, 
3210.00,0.0791
3211.00, 
3212.00,0.0790
3213.00, 
3214.00,0.0789
3215.00, 
3216.00,0.0787
3217.00, 
3218.00,0.0790
3219.00, 
3220.00,0.0790
3221.00, 
3222.00,0.0784
3223.00, 
3224.00,0.0783
3225.00, 
3226.00,0.0788
3227.00, 
3228.00,0.0776
3229.00, 
3230.00,0.0783
3231.00, 
3232.00,0.0787
3233.00, 
3234.00,0.0782
3235.00, 
3236.00,0.0784
3237.00, 
3238.00,0.0787
3239.00, 
3240.00,0.0796
3241.00, 
3242.00,0.0797
3243.00, 
3244.00,0.0797
3245.00, 
3246.00,0.0809
3247.00, 
3248.00,0.0797
3249.00, 
3250.00,0.0799
3251.00, 
3252.00,0.0790
3253.00, 
3254.00,0.0782
3255.00, 
3256.00,0.0781
3257.00, 
3258.00,0.0778
3259.00, 
3260.00,0.0776
3261.00, 
3262.00,0.0772
3263.00, 
3264.00,0.0763
3265.00, 
3266.00,0.0771
3267.00, 
3268.00,0.0766
3269.00, 
3270.00,0.0777
3271.00, 
3272.00,0.0777
3273.00, 
3274.00,0.0777
3275.00, 
3276.00,0.0771
3277.00, 
3278.00,0.0766
3279.00, 
3280.00,0.0764
3281.00, 
3282.00,0.0769
3283.00, 
3284.00,0.0765
3285.00, 
3286.00,0.0761
3287.00, 
3288.00,0.0758
3289.00, 
3290.00,0.0761
3291.00, 
3292.00,0.0759
3293.00, 
3294.00,0.0766
3295.00, 
3296.00,0.0770
3297.00, 
3298.00,0.0776
3299.00, 
3300.00,0.0775
