"20-30mM-1_CF30mM - RawData"
"Wavelength nm."	"Abs."
300.00	0.1286
301.00	0.1297
302.00	0.1307
303.00	0.1318
304.00	0.1327
305.00	0.1336
306.00	0.1344
307.00	0.1356
308.00	0.1371
309.00	0.1385
310.00	0.1392
311.00	0.1398
312.00	0.1408
313.00	0.1417
314.00	0.1427
315.00	0.1444
316.00	0.1461
317.00	0.1475
318.00	0.1486
319.00	0.1501
320.00	0.1512
321.00	0.1524
322.00	0.1534
323.00	0.1547
324.00	0.1556
325.00	0.1568
326.00	0.1578
327.00	0.1588
328.00	0.1596
329.00	0.1605
330.00	0.1613
331.00	0.1618
332.00	0.1618
333.00	0.1627
334.00	0.1638
335.00	0.1650
336.00	0.1667
337.00	0.1687
338.00	0.1700
339.00	0.1712
340.00	0.1725
341.00	0.1736
342.00	0.1747
343.00	0.1758
344.00	0.1769
345.00	0.1781
346.00	0.1792
347.00	0.1803
348.00	0.1811
349.00	0.1821
350.00	0.1830
351.00	0.1840
352.00	0.1852
353.00	0.1863
354.00	0.1873
355.00	0.1881
356.00	0.1889
357.00	0.1896
358.00	0.1905
359.00	0.1911
360.00	0.1918
361.00	0.1923
362.00	0.1924
363.00	0.1936
364.00	0.1949
365.00	0.1966
366.00	0.1983
367.00	0.2005
368.00	0.2015
369.00	0.2030
370.00	0.2045
371.00	0.2066
372.00	0.2077
373.00	0.2089
374.00	0.2099
375.00	0.2107
376.00	0.2111
377.00	0.2126
378.00	0.2141
379.00	0.2157
380.00	0.2174
381.00	0.2191
382.00	0.2207
383.00	0.2226
384.00	0.2246
385.00	0.2265
386.00	0.2286
387.00	0.2309
388.00	0.2328
389.00	0.2346
390.00	0.2366
391.00	0.2383
392.00	0.2401
393.00	0.2419
394.00	0.2438
395.00	0.2456
396.00	0.2473
397.00	0.2489
398.00	0.2504
399.00	0.2520
400.00	0.2536
401.00	0.2554
402.00	0.2572
403.00	0.2593
404.00	0.2612
405.00	0.2631
406.00	0.2649
407.00	0.2667
408.00	0.2684
409.00	0.2702
410.00	0.2719
411.00	0.2737
412.00	0.2752
413.00	0.2765
414.00	0.2778
415.00	0.2787
416.00	0.2794
417.00	0.2799
418.00	0.2803
419.00	0.2806
420.00	0.2808
421.00	0.2806
422.00	0.2803
423.00	0.2799
424.00	0.2793
425.00	0.2785
426.00	0.2780
427.00	0.2773
428.00	0.2767
429.00	0.2762
430.00	0.2758
431.00	0.2754
432.00	0.2751
433.00	0.2750
434.00	0.2749
435.00	0.2749
436.00	0.2748
437.00	0.2748
438.00	0.2745
439.00	0.2743
440.00	0.2739
441.00	0.2737
442.00	0.2736
443.00	0.2739
444.00	0.2740
445.00	0.2742
446.00	0.2744
447.00	0.2745
448.00	0.2745
449.00	0.2747
450.00	0.2750
451.00	0.2753
452.00	0.2758
453.00	0.2765
454.00	0.2770
455.00	0.2778
456.00	0.2785
457.00	0.2793
458.00	0.2800
459.00	0.2808
460.00	0.2817
461.00	0.2825
462.00	0.2835
463.00	0.2842
464.00	0.2852
465.00	0.2861
466.00	0.2870
467.00	0.2877
468.00	0.2888
469.00	0.2895
470.00	0.2904
471.00	0.2912
472.00	0.2920
473.00	0.2926
474.00	0.2933
475.00	0.2941
476.00	0.2948
477.00	0.2956
478.00	0.2964
479.00	0.2970
480.00	0.2974
481.00	0.2979
482.00	0.2984
483.00	0.2990
484.00	0.2995
485.00	0.3000
486.00	0.3004
487.00	0.3007
488.00	0.3010
489.00	0.3014
490.00	0.3018
491.00	0.3022
492.00	0.3026
493.00	0.3028
494.00	0.3031
495.00	0.3032
496.00	0.3033
497.00	0.3034
498.00	0.3036
499.00	0.3038
500.00	0.3039
501.00	0.3041
502.00	0.3042
503.00	0.3043
504.00	0.3044
505.00	0.3045
506.00	0.3041
507.00	0.3039
508.00	0.3034
509.00	0.3031
510.00	0.3027
511.00	0.3025
512.00	0.3022
513.00	0.3018
514.00	0.3012
515.00	0.3006
516.00	0.2999
517.00	0.2992
518.00	0.2985
519.00	0.2977
520.00	0.2971
521.00	0.2965
522.00	0.2958
523.00	0.2950
524.00	0.2941
525.00	0.2931
526.00	0.2923
527.00	0.2913
528.00	0.2905
529.00	0.2899
530.00	0.2897
531.00	0.2883
532.00	0.2871
533.00	0.2860
534.00	0.2846
535.00	0.2830
536.00	0.2822
537.00	0.2814
538.00	0.2806
539.00	0.2799
540.00	0.2788
541.00	0.2780
542.00	0.2769
543.00	0.2760
544.00	0.2752
545.00	0.2742
546.00	0.2732
547.00	0.2724
548.00	0.2715
549.00	0.2704
550.00	0.2696
551.00	0.2686
552.00	0.2676
553.00	0.2666
554.00	0.2655
555.00	0.2645
556.00	0.2636
557.00	0.2626
558.00	0.2615
559.00	0.2606
560.00	0.2594
561.00	0.2582
562.00	0.2573
563.00	0.2564
564.00	0.2554
565.00	0.2545
566.00	0.2535
567.00	0.2523
568.00	0.2510
569.00	0.2498
570.00	0.2489
571.00	0.2479
572.00	0.2471
573.00	0.2462
574.00	0.2451
575.00	0.2437
576.00	0.2422
577.00	0.2409
578.00	0.2397
579.00	0.2386
580.00	0.2375
581.00	0.2366
582.00	0.2353
583.00	0.2340
584.00	0.2327
585.00	0.2314
586.00	0.2300
587.00	0.2287
588.00	0.2275
589.00	0.2262
590.00	0.2249
591.00	0.2235
592.00	0.2221
593.00	0.2207
594.00	0.2193
595.00	0.2179
596.00	0.2166
597.00	0.2152
598.00	0.2138
599.00	0.2125
600.00	0.2113
601.00	0.2101
602.00	0.2090
603.00	0.2079
604.00	0.2065
605.00	0.2051
606.00	0.2036
607.00	0.2022
608.00	0.2008
609.00	0.2000
610.00	0.1997
611.00	0.1992
612.00	0.1985
613.00	0.1972
614.00	0.1959
615.00	0.1945
616.00	0.1934
617.00	0.1926
618.00	0.1917
619.00	0.1905
620.00	0.1893
621.00	0.1883
622.00	0.1876
623.00	0.1874
624.00	0.1870
625.00	0.1864
626.00	0.1854
627.00	0.1844
628.00	0.1834
629.00	0.1832
630.00	0.1832
631.00	0.1831
632.00	0.1826
633.00	0.1820
634.00	0.1811
635.00	0.1801
636.00	0.1795
637.00	0.1793
638.00	0.1792
639.00	0.1789
640.00	0.1785
641.00	0.1781
642.00	0.1776
643.00	0.1774
644.00	0.1771
645.00	0.1772
646.00	0.1772
647.00	0.1773
648.00	0.1770
649.00	0.1771
650.00	0.1768
651.00	0.1767
652.00	0.1765
653.00	0.1765
654.00	0.1763
655.00	0.1762
656.00	0.1761
657.00	0.1762
658.00	0.1764
659.00	0.1769
660.00	0.1773
661.00	0.1775
662.00	0.1776
663.00	0.1776
664.00	0.1774
665.00	0.1773
666.00	0.1776
667.00	0.1777
668.00	0.1778
669.00	0.1779
670.00	0.1787
671.00	0.1788
672.00	0.1790
673.00	0.1794
674.00	0.1796
675.00	0.1789
676.00	0.1790
677.00	0.1791
678.00	0.1790
679.00	0.1793
680.00	0.1799
681.00	0.1800
682.00	0.1804
683.00	0.1809
684.00	0.1809
685.00	0.1806
686.00	0.1808
687.00	0.1809
688.00	0.1808
689.00	0.1809
690.00	0.1807
691.00	0.1811
692.00	0.1812
693.00	0.1813
694.00	0.1815
695.00	0.1820
696.00	0.1816
697.00	0.1814
698.00	0.1811
699.00	0.1810
700.00	0.1809
701.00	0.1814
702.00	0.1815
703.00	0.1818
704.00	0.1819
705.00	0.1822
706.00	0.1824
707.00	0.1826
708.00	0.1828
709.00	0.1831
710.00	0.1832
711.00	0.1829
712.00	0.1830
713.00	0.1831
714.00	0.1833
715.00	0.1833
716.00	0.1833
717.00	0.1831
718.00	0.1829
719.00	0.1826
720.00	0.1829
721.00	0.1836
722.00	0.1843
723.00	0.1845
724.00	0.1842
725.00	0.1841
726.00	0.1829
727.00	0.1826
728.00	0.1825
729.00	0.1831
730.00	0.1831
731.00	0.1841
732.00	0.1846
733.00	0.1853
734.00	0.1856
735.00	0.1857
736.00	0.1857
737.00	0.1856
738.00	0.1857
739.00	0.1864
740.00	0.1869
741.00	0.1876
742.00	0.1880
743.00	0.1883
744.00	0.1884
745.00	0.1888
746.00	0.1893
747.00	0.1897
748.00	0.1907
749.00	0.1911
750.00	0.1917
751.00	0.1920
752.00	0.1926
753.00	0.1925
754.00	0.1931
755.00	0.1934
756.00	0.1938
757.00	0.1941
758.00	0.1945
759.00	0.1946
760.00	0.1949
761.00	0.1953
762.00	0.1958
763.00	0.1963
764.00	0.1967
765.00	0.1970
766.00	0.1974
767.00	0.1974
768.00	0.1973
769.00	0.1973
770.00	0.1969
771.00	0.1967
772.00	0.1964
773.00	0.1962
774.00	0.1959
775.00	0.1961
776.00	0.1950
777.00	0.1947
778.00	0.1943
779.00	0.1939
780.00	0.1927
781.00	0.1927
782.00	0.1919
783.00	0.1912
784.00	0.1909
785.00	0.1908
786.00	0.1902
787.00	0.1898
788.00	0.1895
789.00	0.1889
790.00	0.1881
791.00	0.1874
792.00	0.1866
793.00	0.1856
794.00	0.1845
795.00	0.1834
796.00	0.1822
797.00	0.1806
798.00	0.1791
799.00	0.1774
800.00	0.1760
801.00	0.1747
802.00	0.1738
803.00	0.1726
804.00	0.1716
805.00	0.1704
806.00	0.1693
807.00	0.1683
808.00	0.1675
809.00	0.1667
810.00	0.1660
811.00	0.1651
812.00	0.1645
813.00	0.1637
814.00	0.1636
815.00	0.1632
816.00	0.1628
817.00	0.1623
818.00	0.1622
819.00	0.1617
820.00	0.1615
821.00	0.1616
822.00	0.1617
823.00	0.1616
824.00	0.1615
825.00	0.1615
826.00	0.1614
827.00	0.1615
828.00	0.1616
829.00	0.1618
830.00	0.1620
831.00	0.1626
832.00	0.1626
833.00	0.1630
834.00	0.1630
835.00	0.1632
836.00	0.1634
837.00	0.1637
838.00	0.1641
839.00	0.1645
840.00	0.1649
841.00	0.1655
842.00	0.1660
843.00	0.1665
844.00	0.1672
845.00	0.1678
846.00	0.1685
847.00	0.1691
848.00	0.1697
849.00	0.1702
850.00	0.1709
851.00	0.1713
852.00	0.1717
853.00	0.1721
854.00	0.1726
855.00	0.1726
856.00	0.1727
857.00	0.1729
858.00	0.1729
859.00	0.1728
860.00	0.1730
861.00	0.1732
862.00	0.1733
863.00	0.1735
864.00	0.1736
865.00	0.1735
866.00	0.1734
867.00	0.1735
868.00	0.1737
869.00	0.1733
870.00	0.1732
871.00	0.1731
872.00	0.1729
873.00	0.1725
874.00	0.1728
875.00	0.1728
876.00	0.1726
877.00	0.1723
878.00	0.1717
879.00	0.1710
880.00	0.1701
881.00	0.1693
882.00	0.1685
883.00	0.1676
884.00	0.1667
885.00	0.1659
886.00	0.1651
887.00	0.1641
888.00	0.1632
889.00	0.1621
890.00	0.1610
891.00	0.1598
892.00	0.1586
893.00	0.1574
894.00	0.1563
895.00	0.1553
896.00	0.1543
897.00	0.1533
898.00	0.1522
899.00	0.1513
900.00	0.1502
901.00	0.1491
902.00	0.1480
903.00	0.1470
904.00	0.1460
905.00	0.1450
906.00	0.1441
907.00	0.1434
908.00	0.1424
909.00	0.1414
910.00	0.1406
911.00	0.1397
912.00	0.1387
913.00	0.1378
914.00	0.1370
915.00	0.1361
916.00	0.1351
917.00	0.1343
918.00	0.1335
919.00	0.1327
920.00	0.1320
921.00	0.1313
922.00	0.1305
923.00	0.1295
924.00	0.1285
925.00	0.1274
926.00	0.1266
927.00	0.1257
928.00	0.1249
929.00	0.1242
930.00	0.1234
931.00	0.1226
932.00	0.1218
933.00	0.1209
934.00	0.1203
935.00	0.1196
936.00	0.1188
937.00	0.1183
938.00	0.1180
939.00	0.1172
940.00	0.1167
941.00	0.1162
942.00	0.1154
943.00	0.1145
944.00	0.1137
945.00	0.1129
946.00	0.1120
947.00	0.1113
948.00	0.1108
949.00	0.1102
950.00	0.1096
951.00	0.1092
952.00	0.1084
953.00	0.1077
954.00	0.1070
955.00	0.1062
956.00	0.1055
957.00	0.1048
958.00	0.1041
959.00	0.1034
960.00	0.1030
961.00	0.1023
962.00	0.1018
963.00	0.1012
964.00	0.1007
965.00	0.1000
966.00	0.0994
967.00	0.0986
968.00	0.0978
969.00	0.0971
970.00	0.0965
971.00	0.0960
972.00	0.0955
973.00	0.0951
974.00	0.0945
975.00	0.0939
976.00	0.0932
977.00	0.0927
978.00	0.0919
979.00	0.0916
980.00	0.0909
981.00	0.0903
982.00	0.0899
983.00	0.0893
984.00	0.0886
985.00	0.0883
986.00	0.0879
987.00	0.0872
988.00	0.0870
989.00	0.0863
990.00	0.0857
991.00	0.0851
992.00	0.0845
993.00	0.0839
994.00	0.0835
995.00	0.0831
996.00	0.0827
997.00	0.0822
998.00	0.0816
999.00	0.0810
1000.00	0.0803
1001.00	0.0795
1002.00	0.0790
1003.00	0.0784
1004.00	0.0781
1005.00	0.0776
1006.00	0.0774
1007.00	0.0768
1008.00	0.0764
1009.00	0.0757
1010.00	0.0754
1011.00	0.0747
1012.00	0.0742
1013.00	0.0738
1014.00	0.0731
1015.00	0.0726
1016.00	0.0720
1017.00	0.0717
1018.00	0.0712
1019.00	0.0710
1020.00	0.0708
1021.00	0.0704
1022.00	0.0701
1023.00	0.0697
1024.00	0.0692
1025.00	0.0684
1026.00	0.0681
1027.00	0.0674
1028.00	0.0670
1029.00	0.0666
1030.00	0.0664
1031.00	0.0659
1032.00	0.0656
1033.00	0.0651
1034.00	0.0648
1035.00	0.0643
1036.00	0.0639
1037.00	0.0635
1038.00	0.0630
1039.00	0.0626
1040.00	0.0622
1041.00	0.0620
1042.00	0.0618
1043.00	0.0615
1044.00	0.0611
1045.00	0.0609
1046.00	0.0604
1047.00	0.0599
1048.00	0.0596
1049.00	0.0592
1050.00	0.0587
1051.00	0.0585
1052.00	0.0582
1053.00	0.0577
1054.00	0.0575
1055.00	0.0574
1056.00	0.0569
1057.00	0.0569
1058.00	0.0568
1059.00	0.0564
1060.00	0.0560
1061.00	0.0559
1062.00	0.0555
1063.00	0.0550
1064.00	0.0548
1065.00	0.0546
1066.00	0.0542
1067.00	0.0540
1068.00	0.0539
1069.00	0.0535
1070.00	0.0531
1071.00	0.0528
1072.00	0.0524
1073.00	0.0519
1074.00	0.0518
1075.00	0.0512
1076.00	0.0510
1077.00	0.0507
1078.00	0.0505
1079.00	0.0503
1080.00	0.0504
1081.00	0.0503
1082.00	0.0500
1083.00	0.0499
1084.00	0.0499
1085.00	0.0497
1086.00	0.0494
1087.00	0.0492
1088.00	0.0488
1089.00	0.0487
1090.00	0.0484
1091.00	0.0484
1092.00	0.0483
1093.00	0.0481
1094.00	0.0478
1095.00	0.0476
1096.00	0.0475
1097.00	0.0472
1098.00	0.0472
1099.00	0.0473
1100.00	0.0474
1101.00	0.0471
1102.00	0.0471
1103.00	0.0470
1104.00	0.0469
1105.00	0.0469
1106.00	0.0463
1107.00	0.0461
1108.00	0.0458
1109.00	0.0454
1110.00	0.0449
1111.00	0.0452
1112.00	0.0451
1113.00	0.0450
1114.00	0.0450
1115.00	0.0450
1116.00	0.0449
1117.00	0.0447
1118.00	0.0445
1119.00	0.0444
1120.00	0.0443
1121.00	0.0437
1122.00	0.0440
1123.00	0.0439
1124.00	0.0437
1125.00	0.0437
1126.00	0.0440
1127.00	0.0438
1128.00	0.0436
1129.00	0.0434
1130.00	0.0430
1131.00	0.0429
1132.00	0.0426
1133.00	0.0428
1134.00	0.0429
1135.00	0.0429
1136.00	0.0429
1137.00	0.0429
1138.00	0.0430
1139.00	0.0429
1140.00	0.0427
1141.00	0.0426
1142.00	0.0423
1143.00	0.0421
1144.00	0.0423
1145.00	0.0422
1146.00	0.0422
1147.00	0.0425
1148.00	0.0424
1149.00	0.0421
1150.00	0.0425
1151.00	0.0431
1152.00	0.0428
1153.00	0.0428
1154.00	0.0428
1155.00	0.0424
1156.00	0.0418
1157.00	0.0419
1158.00	0.0420
1159.00	0.0421
1160.00	0.0421
1161.00	0.0420
1162.00	0.0418
1163.00	0.0417
1164.00	0.0415
1165.00	0.0413
1166.00	0.0413
1167.00	0.0413
1168.00	0.0414
1169.00	0.0416
1170.00	0.0418
1171.00	0.0420
1172.00	0.0419
1173.00	0.0420
1174.00	0.0418
1175.00	0.0417
1176.00	0.0417
1177.00	0.0419
1178.00	0.0417
1179.00	0.0418
1180.00	0.0419
1181.00	0.0420
1182.00	0.0419
1183.00	0.0420
1184.00	0.0420
1185.00	0.0418
1186.00	0.0417
1187.00	0.0416
1188.00	0.0415
1189.00	0.0414
1190.00	0.0414
1191.00	0.0413
1192.00	0.0413
1193.00	0.0413
1194.00	0.0417
1195.00	0.0421
1196.00	0.0422
1197.00	0.0422
1198.00	0.0421
1199.00	0.0418
1200.00	0.0416
1201.00	0.0416
1202.00	0.0416
1203.00	0.0421
1204.00	0.0424
1205.00	0.0425
1206.00	0.0426
1207.00	0.0427
1208.00	0.0426
1209.00	0.0423
1210.00	0.0422
1211.00	0.0422
1212.00	0.0423
1213.00	0.0419
1214.00	0.0415
1215.00	0.0415
1216.00	0.0416
1217.00	0.0416
1218.00	0.0418
1219.00	0.0424
1220.00	0.0425
1221.00	0.0424
1222.00	0.0424
1223.00	0.0425
1224.00	0.0426
1225.00	0.0427
1226.00	0.0427
1227.00	0.0427
1228.00	0.0426
1229.00	0.0425
1230.00	0.0425
1231.00	0.0425
1232.00	0.0427
1233.00	0.0427
1234.00	0.0428
1235.00	0.0430
1236.00	0.0430
1237.00	0.0429
1238.00	0.0431
1239.00	0.0433
1240.00	0.0429
1241.00	0.0426
1242.00	0.0426
1243.00	0.0425
1244.00	0.0426
1245.00	0.0430
1246.00	0.0436
1247.00	0.0437
1248.00	0.0439
1249.00	0.0439
1250.00	0.0439
1251.00	0.0438
1252.00	0.0438
1253.00	0.0437
1254.00	0.0438
1255.00	0.0438
1256.00	0.0437
1257.00	0.0438
1258.00	0.0441
1259.00	0.0439
1260.00	0.0436
1261.00	0.0438
1262.00	0.0439
1263.00	0.0440
1264.00	0.0443
1265.00	0.0448
1266.00	0.0450
1267.00	0.0449
1268.00	0.0448
1269.00	0.0451
1270.00	0.0453
1271.00	0.0454
1272.00	0.0455
1273.00	0.0456
1274.00	0.0456
1275.00	0.0454
1276.00	0.0455
1277.00	0.0455
1278.00	0.0456
1279.00	0.0457
1280.00	0.0459
1281.00	0.0461
1282.00	0.0462
1283.00	0.0463
1284.00	0.0464
1285.00	0.0464
1286.00	0.0463
1287.00	0.0464
1288.00	0.0462
1289.00	0.0462
1290.00	0.0465
1291.00	0.0466
1292.00	0.0467
1293.00	0.0471
1294.00	0.0470
1295.00	0.0471
1296.00	0.0472
1297.00	0.0471
1298.00	0.0473
1299.00	0.0476
1300.00	0.0477
1301.00	0.0479
1302.00	0.0486
1303.00	0.0487
1304.00	0.0487
1305.00	0.0487
1306.00	0.0487
1307.00	0.0482
1308.00	0.0484
1309.00	0.0486
1310.00	0.0487
1311.00	0.0488
1312.00	0.0489
1313.00	0.0488
1314.00	0.0489
1315.00	0.0491
1316.00	0.0494
1317.00	0.0495
1318.00	0.0495
1319.00	0.0496
1320.00	0.0494
1321.00	0.0493
1322.00	0.0494
1323.00	0.0497
1324.00	0.0496
1325.00	0.0498
1326.00	0.0500
1327.00	0.0501
1328.00	0.0504
1329.00	0.0504
1330.00	0.0506
1331.00	0.0506
1332.00	0.0507
1333.00	0.0508
1334.00	0.0511
1335.00	0.0510
1336.00	0.0513
1337.00	0.0515
1338.00	0.0515
1339.00	0.0516
1340.00	0.0519
1341.00	0.0521
1342.00	0.0521
1343.00	0.0522
1344.00	0.0520
1345.00	0.0522
1346.00	0.0521
1347.00	0.0522
1348.00	0.0525
1349.00	0.0528
1350.00	0.0527
1351.00	0.0529
1352.00	0.0530
1353.00	0.0530
1354.00	0.0533
1355.00	0.0534
1356.00	0.0536
1357.00	0.0539
1358.00	0.0542
1359.00	0.0544
1360.00	0.0548
1361.00	0.0550
1362.00	0.0551
1363.00	0.0551
1364.00	0.0552
1365.00	0.0553
1366.00	0.0552
1367.00	0.0554
1368.00	0.0556
1369.00	0.0558
1370.00	0.0559
1371.00	0.0564
1372.00	0.0566
1373.00	0.0568
1374.00	0.0570
1375.00	0.0570
1376.00	0.0572
1377.00	0.0573
1378.00	0.0577
1379.00	0.0577
1380.00	0.0580
1381.00	0.0582
1382.00	0.0583
1383.00	0.0585
1384.00	0.0587
1385.00	0.0589
1386.00	0.0589
1387.00	0.0590
1388.00	0.0590
1389.00	0.0595
1390.00	0.0591
1391.00	0.0586
1392.00	0.0588
1393.00	0.0583
1394.00	0.0581
1395.00	0.0589
1396.00	0.0598
1397.00	0.0602
1398.00	0.0611
1399.00	0.0613
1400.00	0.0615
1401.00	0.0616
1402.00	0.0618
1403.00	0.0620
1404.00	0.0622
1405.00	0.0624
1406.00	0.0628
1407.00	0.0630
1408.00	0.0633
1409.00	0.0636
1410.00	0.0638
1411.00	0.0638
1412.00	0.0638
1413.00	0.0639
1414.00	0.0640
1415.00	0.0643
1416.00	0.0645
1417.00	0.0647
1418.00	0.0648
1419.00	0.0650
1420.00	0.0650
1421.00	0.0652
1422.00	0.0656
1423.00	0.0658
1424.00	0.0659
1425.00	0.0662
1426.00	0.0666
1427.00	0.0666
1428.00	0.0668
1429.00	0.0669
1430.00	0.0672
1431.00	0.0672
1432.00	0.0676
1433.00	0.0679
1434.00	0.0681
1435.00	0.0683
1436.00	0.0685
1437.00	0.0686
1438.00	0.0690
1439.00	0.0692
1440.00	0.0693
1441.00	0.0695
1442.00	0.0692
1443.00	0.0687
1444.00	0.0689
1445.00	0.0689
1446.00	0.0689
1447.00	0.0694
1448.00	0.0702
1449.00	0.0704
1450.00	0.0708
1451.00	0.0712
1452.00	0.0711
1453.00	0.0713
1454.00	0.0716
1455.00	0.0716
1456.00	0.0717
1457.00	0.0722
1458.00	0.0724
1459.00	0.0726
1460.00	0.0728
1461.00	0.0730
1462.00	0.0733
1463.00	0.0735
1464.00	0.0735
1465.00	0.0736
1466.00	0.0737
1467.00	0.0737
1468.00	0.0740
1469.00	0.0742
1470.00	0.0747
1471.00	0.0753
1472.00	0.0756
1473.00	0.0757
1474.00	0.0761
1475.00	0.0761
1476.00	0.0758
1477.00	0.0761
1478.00	0.0761
1479.00	0.0765
1480.00	0.0767
1481.00	0.0770
1482.00	0.0773
1483.00	0.0778
1484.00	0.0778
1485.00	0.0782
1486.00	0.0785
1487.00	0.0785
1488.00	0.0788
1489.00	0.0791
1490.00	0.0791
1491.00	0.0793
1492.00	0.0796
1493.00	0.0798
1494.00	0.0800
1495.00	0.0803
1496.00	0.0806
1497.00	0.0810
1498.00	0.0808
1499.00	0.0810
1500.00	0.0811
1501.00	0.0814
1502.00	0.0816
1503.00	0.0820
1504.00	0.0823
1505.00	0.0829
1506.00	0.0831
1507.00	0.0833
1508.00	0.0837
1509.00	0.0838
1510.00	0.0840
1511.00	0.0842
1512.00	0.0844
1513.00	0.0845
1514.00	0.0848
1515.00	0.0850
1516.00	0.0851
1517.00	0.0854
1518.00	0.0856
1519.00	0.0856
1520.00	0.0854
1521.00	0.0858
1522.00	0.0859
1523.00	0.0863
1524.00	0.0867
1525.00	0.0872
1526.00	0.0877
1527.00	0.0877
1528.00	0.0879
1529.00	0.0881
1530.00	0.0880
1531.00	0.0882
1532.00	0.0885
1533.00	0.0885
1534.00	0.0888
1535.00	0.0893
1536.00	0.0893
1537.00	0.0896
1538.00	0.0899
1539.00	0.0899
1540.00	0.0902
1541.00	0.0905
1542.00	0.0906
1543.00	0.0911
1544.00	0.0915
1545.00	0.0918
1546.00	0.0922
1547.00	0.0923
1548.00	0.0925
1549.00	0.0928
1550.00	0.0930
1551.00	0.0931
1552.00	0.0934
1553.00	0.0935
1554.00	0.0937
1555.00	0.0937
1556.00	0.0940
1557.00	0.0942
1558.00	0.0945
1559.00	0.0948
1560.00	0.0952
1561.00	0.0955
1562.00	0.0957
1563.00	0.0960
1564.00	0.0961
1565.00	0.0963
1566.00	0.0966
1567.00	0.0969
1568.00	0.0971
1569.00	0.0974
1570.00	0.0977
1571.00	0.0980
1572.00	0.0983
1573.00	0.0984
1574.00	0.0980
1575.00	0.0982
1576.00	0.0983
1577.00	0.0982
1578.00	0.0987
1579.00	0.0995
1580.00	0.0997
1581.00	0.1000
1582.00	0.1005
1583.00	0.1007
1584.00	0.1010
1585.00	0.1014
1586.00	0.1015
1587.00	0.1018
1588.00	0.1019
1589.00	0.1022
1590.00	0.1024
1591.00	0.1025
1592.00	0.1029
1593.00	0.1029
1594.00	0.1033
1595.00	0.1035
1596.00	0.1037
1597.00	0.1038
1598.00	0.1042
1599.00	0.1043
1600.00	0.1046
1601.00	0.1052
1602.00	0.1055
1603.00	0.1058
1604.00	0.1059
1605.00	0.1061
1606.00	0.1063
1607.00	0.1065
1608.00	0.1068
1609.00	0.1074
1610.00	0.1075
1611.00	0.1076
1612.00	0.1075
1613.00	0.1077
1614.00	0.1079
1615.00	0.1082
1616.00	0.1084
1617.00	0.1091
1618.00	0.1094
1619.00	0.1095
1620.00	0.1097
1621.00	0.1098
1622.00	0.1099
1623.00	0.1097
1624.00	0.1103
1625.00	0.1108
1626.00	0.1112
1627.00	0.1116
1628.00	0.1120
1629.00	0.1121
1630.00	0.1119
1631.00	0.1122
1632.00	0.1121
1633.00	0.1123
1634.00	0.1122
1635.00	0.1125
1636.00	0.1127
1637.00	0.1130
1638.00	0.1132
1639.00	0.1133
1640.00	0.1134
1641.00	0.1132
1642.00	0.1133
1643.00	0.1133
1644.00	0.1134
1645.00	0.1132
1646.00	0.1132
1647.00	0.1133
1648.00	0.1133
1649.00	0.1130
1650.00	0.1129
1651.00	0.1128
1652.00	0.1125
1653.00	0.1122
1654.00	0.1123
1655.00	0.1122
1656.00	0.1122
1657.00	0.1121
1658.00	0.1121
1659.00	0.1123
1660.00	0.1123
1661.00	0.1125
1662.00	0.1129
1663.00	0.1130
1664.00	0.1130
1665.00	0.1130
1666.00	0.1130
1667.00	0.1132
1668.00	0.1135
1669.00	0.1137
1670.00	0.1141
1671.00	0.1142
1672.00	0.1144
1673.00	0.1146
1674.00	0.1148
1675.00	0.1151
1676.00	0.1156
1677.00	0.1157
1678.00	0.1158
1679.00	0.1157
1680.00	0.1157
1681.00	0.1157
1682.00	0.1158
1683.00	0.1161
1684.00	0.1164
1685.00	0.1165
1686.00	0.1168
1687.00	0.1169
1688.00	0.1169
1689.00	0.1171
1690.00	0.1173
1691.00	0.1172
1692.00	0.1174
1693.00	0.1176
1694.00	0.1178
1695.00	0.1179
1696.00	0.1183
1697.00	0.1186
1698.00	0.1191
1699.00	0.1195
1700.00	0.1196
1701.00	0.1200
1702.00	0.1202
1703.00	0.1201
1704.00	0.1200
1705.00	0.1203
1706.00	0.1204
1707.00	0.1205
1708.00	0.1207
1709.00	0.1211
1710.00	0.1214
1711.00	0.1216
1712.00	0.1220
1713.00	0.1223
1714.00	0.1227
1715.00	0.1230
1716.00	0.1232
1717.00	0.1231
1718.00	0.1231
1719.00	0.1231
1720.00	0.1232
1721.00	0.1231
1722.00	0.1233
1723.00	0.1235
1724.00	0.1235
1725.00	0.1236
1726.00	0.1239
1727.00	0.1241
1728.00	0.1243
1729.00	0.1247
1730.00	0.1250
1731.00	0.1252
1732.00	0.1253
1733.00	0.1257
1734.00	0.1257
1735.00	0.1259
1736.00	0.1262
1737.00	0.1265
1738.00	0.1264
1739.00	0.1266
1740.00	0.1267
1741.00	0.1268
1742.00	0.1269
1743.00	0.1271
1744.00	0.1274
1745.00	0.1276
1746.00	0.1276
1747.00	0.1279
1748.00	0.1280
1749.00	0.1280
1750.00	0.1282
1751.00	0.1284
1752.00	0.1287
1753.00	0.1291
1754.00	0.1294
1755.00	0.1296
1756.00	0.1296
1757.00	0.1297
1758.00	0.1297
1759.00	0.1296
1760.00	0.1297
1761.00	0.1296
1762.00	0.1295
1763.00	0.1299
1764.00	0.1303
1765.00	0.1306
1766.00	0.1310
1767.00	0.1315
1768.00	0.1318
1769.00	0.1320
1770.00	0.1321
1771.00	0.1323
1772.00	0.1322
1773.00	0.1319
1774.00	0.1320
1775.00	0.1320
1776.00	0.1321
1777.00	0.1321
1778.00	0.1323
1779.00	0.1322
1780.00	0.1326
1781.00	0.1330
1782.00	0.1334
1783.00	0.1338
1784.00	0.1342
1785.00	0.1344
1786.00	0.1343
1787.00	0.1345
1788.00	0.1345
1789.00	0.1346
1790.00	0.1345
1791.00	0.1346
1792.00	0.1347
1793.00	0.1346
1794.00	0.1348
1795.00	0.1351
1796.00	0.1353
1797.00	0.1357
1798.00	0.1360
1799.00	0.1359
1800.00	0.1359
1801.00	0.1363
1802.00	0.1364
1803.00	0.1367
1804.00	0.1370
1805.00	0.1374
1806.00	0.1371
1807.00	0.1373
1808.00	0.1375
1809.00	0.1374
1810.00	0.1376
1811.00	0.1379
1812.00	0.1378
1813.00	0.1377
1814.00	0.1377
1815.00	0.1376
1816.00	0.1373
1817.00	0.1374
1818.00	0.1376
1819.00	0.1377
1820.00	0.1380
1821.00	0.1387
1822.00	0.1390
1823.00	0.1392
1824.00	0.1396
1825.00	0.1397
1826.00	0.1398
1827.00	0.1400
1828.00	0.1399
1829.00	0.1400
1830.00	0.1401
1831.00	0.1403
1832.00	0.1405
1833.00	0.1408
1834.00	0.1411
1835.00	0.1411
1836.00	0.1413
1837.00	0.1412
1838.00	0.1411
1839.00	0.1412
1840.00	0.1414
1841.00	0.1413
1842.00	0.1412
1843.00	0.1414
1844.00	0.1414
1845.00	0.1413
1846.00	0.1413
1847.00	0.1412
1848.00	0.1411
1849.00	0.1408
1850.00	0.1408
1851.00	0.1411
1852.00	0.1415
1853.00	0.1419
1854.00	0.1426
1855.00	0.1431
1856.00	0.1434
1857.00	0.1437
1858.00	0.1439
1859.00	0.1439
1860.00	0.1441
1861.00	0.1442
1862.00	0.1442
1863.00	0.1441
1864.00	0.1441
1865.00	0.1439
1866.00	0.1439
1867.00	0.1440
1868.00	0.1443
1869.00	0.1443
1870.00	0.1442
1871.00	0.1442
1872.00	0.1440
1873.00	0.1440
1874.00	0.1441
1875.00	0.1444
1876.00	0.1447
1877.00	0.1450
1878.00	0.1449
1879.00	0.1448
1880.00	0.1448
1881.00	0.1445
1882.00	0.1444
1883.00	0.1446
1884.00	0.1446
1885.00	0.1444
1886.00	0.1447
1887.00	0.1448
1888.00	0.1449
1889.00	0.1452
1890.00	0.1455
1891.00	0.1454
1892.00	0.1456
1893.00	0.1461
1894.00	0.1462
1895.00	0.1460
1896.00	0.1462
1897.00	0.1466
1898.00	0.1469
1899.00	0.1471
1900.00	0.1477
1901.00	0.1482
1902.00	0.1483
1903.00	0.1483
1904.00	0.1485
1905.00	0.1486
1906.00	0.1486
1907.00	0.1485
1908.00	0.1485
1909.00	0.1484
1910.00	0.1483
1911.00	0.1484
1912.00	0.1483
1913.00	0.1480
1914.00	0.1478
1915.00	0.1480
1916.00	0.1479
1917.00	0.1480
1918.00	0.1481
1919.00	0.1484
1920.00	0.1483
1921.00	0.1483
1922.00	0.1486
1923.00	0.1488
1924.00	0.1489
1925.00	0.1490
1926.00	0.1494
1927.00	0.1497
1928.00	0.1499
1929.00	0.1498
1930.00	0.1500
1931.00	0.1498
1932.00	0.1496
1933.00	0.1494
1934.00	0.1492
1935.00	0.1491
1936.00	0.1490
1937.00	0.1493
1938.00	0.1495
1939.00	0.1498
1940.00	0.1501
1941.00	0.1504
1942.00	0.1503
1943.00	0.1504
1944.00	0.1503
1945.00	0.1503
1946.00	0.1502
1947.00	0.1501
1948.00	0.1499
1949.00	0.1502
1950.00	0.1500
1951.00	0.1499
1952.00	0.1501
1953.00	0.1503
1954.00	0.1504
1955.00	0.1505
1956.00	0.1509
1957.00	0.1510
1958.00	0.1510
1959.00	0.1510
1960.00	0.1512
1961.00	0.1511
1962.00	0.1511
1963.00	0.1511
1964.00	0.1510
1965.00	0.1511
1966.00	0.1510
1967.00	0.1512
1968.00	0.1515
1969.00	0.1518
1970.00	0.1517
1971.00	0.1519
1972.00	0.1517
1973.00	0.1515
1974.00	0.1515
1975.00	0.1516
1976.00	0.1517
1977.00	0.1520
1978.00	0.1522
1979.00	0.1524
1980.00	0.1526
1981.00	0.1525
1982.00	0.1522
1983.00	0.1523
1984.00	0.1525
1985.00	0.1525
1986.00	0.1527
1987.00	0.1530
1988.00	0.1529
1989.00	0.1528
1990.00	0.1527
1991.00	0.1528
1992.00	0.1528
1993.00	0.1528
1994.00	0.1527
1995.00	0.1527
1996.00	0.1527
1997.00	0.1528
1998.00	0.1532
1999.00	0.1533
2000.00	0.1536
2001.00	0.1540
2002.00	0.1539
2003.00	0.1537
2004.00	0.1536
2005.00	0.1535
2006.00	0.1535
2007.00	0.1536
2008.00	0.1537
2009.00	0.1537
2010.00	0.1534
2011.00	0.1531
2012.00	0.1530
2013.00	0.1532
2014.00	0.1531
2015.00	0.1535
2016.00	0.1536
2017.00	0.1536
2018.00	0.1535
2019.00	0.1537
2020.00	0.1537
2021.00	0.1532
2022.00	0.1534
2023.00	0.1532
2024.00	0.1531
2025.00	0.1531
2026.00	0.1536
2027.00	0.1534
2028.00	0.1534
2029.00	0.1536
2030.00	0.1538
2031.00	0.1542
2032.00	0.1545
2033.00	0.1547
2034.00	0.1547
2035.00	0.1548
2036.00	0.1548
2037.00	0.1548
2038.00	0.1548
2039.00	0.1549
2040.00	0.1549
2041.00	0.1548
2042.00	0.1544
2043.00	0.1545
2044.00	0.1547
2045.00	0.1547
2046.00	0.1548
2047.00	0.1549
2048.00	0.1544
2049.00	0.1546
2050.00	0.1545
2051.00	0.1546
2052.00	0.1552
2053.00	0.1556
2054.00	0.1556
2055.00	0.1558
2056.00	0.1561
2057.00	0.1558
2058.00	0.1558
2059.00	0.1556
2060.00	0.1558
2061.00	0.1555
2062.00	0.1557
2063.00	0.1562
2064.00	0.1562
2065.00	0.1563
2066.00	0.1562
2067.00	0.1561
2068.00	0.1558
2069.00	0.1558
2070.00	0.1556
2071.00	0.1558
2072.00	0.1559
2073.00	0.1558
2074.00	0.1559
2075.00	0.1558
2076.00	0.1555
2077.00	0.1554
2078.00	0.1557
2079.00	0.1556
2080.00	0.1558
2081.00	0.1561
2082.00	0.1563
2083.00	0.1565
2084.00	0.1567
2085.00	0.1569
2086.00	0.1570
2087.00	0.1569
2088.00	0.1565
2089.00	0.1562
2090.00	0.1564
2091.00	0.1563
2092.00	0.1564
2093.00	0.1564
2094.00	0.1565
2095.00	0.1559
2096.00	0.1559
2097.00	0.1556
2098.00	0.1557
2099.00	0.1557
2100.00	0.1562
2101.00	0.1563
2102.00	0.1565
2103.00	0.1566
2104.00	0.1566
2105.00	0.1562
2106.00	0.1560
2107.00	0.1555
2108.00	0.1555
2109.00	0.1557
2110.00	0.1558
2111.00	0.1561
2112.00	0.1567
2113.00	0.1566
2114.00	0.1564
2115.00	0.1564
2116.00	0.1565
2117.00	0.1563
2118.00	0.1566
2119.00	0.1567
2120.00	0.1567
2121.00	0.1563
2122.00	0.1566
2123.00	0.1565
2124.00	0.1564
2125.00	0.1561
2126.00	0.1566
2127.00	0.1565
2128.00	0.1565
2129.00	0.1565
2130.00	0.1568
2131.00	0.1562
2132.00	0.1563
2133.00	0.1564
2134.00	0.1567
2135.00	0.1568
2136.00	0.1570
2137.00	0.1570
2138.00	0.1569
2139.00	0.1566
2140.00	0.1567
2141.00	0.1568
2142.00	0.1569
2143.00	0.1570
2144.00	0.1570
2145.00	0.1567
2146.00	0.1567
2147.00	0.1562
2148.00	0.1563
2149.00	0.1562
2150.00	0.1563
2151.00	0.1563
2152.00	0.1564
2153.00	0.1561
2154.00	0.1560
2155.00	0.1562
2156.00	0.1560
2157.00	0.1561
2158.00	0.1563
2159.00	0.1561
2160.00	0.1561
2161.00	0.1561
2162.00	0.1562
2163.00	0.1560
2164.00	0.1562
2165.00	0.1561
2166.00	0.1560
2167.00	0.1560
2168.00	0.1562
2169.00	0.1564
2170.00	0.1560
2171.00	0.1563
2172.00	0.1565
2173.00	0.1561
2174.00	0.1561
2175.00	0.1562
2176.00	0.1562
2177.00	0.1558
2178.00	0.1561
2179.00	0.1560
2180.00	0.1563
2181.00	0.1563
2182.00	0.1565
2183.00	0.1564
2184.00	0.1566
2185.00	0.1565
2186.00	0.1564
2187.00	0.1560
2188.00	0.1560
2189.00	0.1558
2190.00	0.1556
2191.00	0.1555
2192.00	0.1555
2193.00	0.1552
2194.00	0.1549
2195.00	0.1547
2196.00	0.1545
2197.00	0.1549
2198.00	0.1548
2199.00	0.1548
2200.00	0.1549
2201.00	0.1550
2202.00	0.1549
2203.00	0.1545
2204.00	0.1547
2205.00	0.1544
2206.00	0.1542
2207.00	0.1538
2208.00	0.1541
2209.00	0.1541
2210.00	0.1545
2211.00	0.1545
2212.00	0.1546
2213.00	0.1542
2214.00	0.1539
2215.00	0.1536
2216.00	0.1539
2217.00	0.1540
2218.00	0.1539
2219.00	0.1540
2220.00	0.1541
2221.00	0.1537
2222.00	0.1537
2223.00	0.1543
2224.00	0.1541
2225.00	0.1541
2226.00	0.1536
2227.00	0.1538
2228.00	0.1536
2229.00	0.1534
2230.00	0.1528
2231.00	0.1534
2232.00	0.1534
2233.00	0.1528
2234.00	0.1530
2235.00	0.1534
2236.00	0.1535
2237.00	0.1531
2238.00	0.1532
2239.00	0.1534
2240.00	0.1534
2241.00	0.1533
2242.00	0.1533
2243.00	0.1535
2244.00	0.1534
2245.00	0.1533
2246.00	0.1532
2247.00	0.1531
2248.00	0.1531
2249.00	0.1529
2250.00	0.1529
2251.00	0.1529
2252.00	0.1530
2253.00	0.1532
2254.00	0.1533
2255.00	0.1534
2256.00	0.1534
2257.00	0.1539
2258.00	0.1541
2259.00	0.1541
2260.00	0.1542
2261.00	0.1543
2262.00	0.1540
2263.00	0.1538
2264.00	0.1540
2265.00	0.1542
2266.00	0.1540
2267.00	0.1538
2268.00	0.1539
2269.00	0.1538
2270.00	0.1535
2271.00	0.1535
2272.00	0.1536
2273.00	0.1532
2274.00	0.1530
2275.00	0.1532
2276.00	0.1531
2277.00	0.1532
2278.00	0.1532
2279.00	0.1535
2280.00	0.1534
2281.00	0.1535
2282.00	0.1532
2283.00	0.1533
2284.00	0.1531
2285.00	0.1531
2286.00	0.1532
2287.00	0.1534
2288.00	0.1534
2289.00	0.1536
2290.00	0.1536
2291.00	0.1536
2292.00	0.1538
2293.00	0.1539
2294.00	0.1536
2295.00	0.1539
2296.00	0.1537
2297.00	0.1532
2298.00	0.1533
2299.00	0.1533
2300.00	0.1528
2301.00	0.1531
2302.00	0.1533
2303.00	0.1532
2304.00	0.1532
2305.00	0.1531
2306.00	0.1530
2307.00	0.1529
2308.00	0.1528
2309.00	0.1527
2310.00	0.1527
2311.00	0.1525
2312.00	0.1527
2313.00	0.1526
2314.00	0.1527
2315.00	0.1528
2316.00	0.1526
2317.00	0.1522
2318.00	0.1521
2319.00	0.1521
2320.00	0.1521
2321.00	0.1524
2322.00	0.1525
2323.00	0.1527
2324.00	0.1530
2325.00	0.1529
2326.00	0.1528
2327.00	0.1526
2328.00	0.1523
2329.00	0.1521
2330.00	0.1521
2331.00	0.1520
2332.00	0.1524
2333.00	0.1526
2334.00	0.1526
2335.00	0.1524
2336.00	0.1523
2337.00	0.1519
2338.00	0.1518
2339.00	0.1517
2340.00	0.1513
2341.00	0.1512
2342.00	0.1513
2343.00	0.1510
2344.00	0.1511
2345.00	0.1516
2346.00	0.1519
2347.00	0.1516
2348.00	0.1518
2349.00	0.1518
2350.00	0.1514
2351.00	0.1512
2352.00	0.1517
2353.00	0.1514
2354.00	0.1513
2355.00	0.1517
2356.00	0.1517
2357.00	0.1518
2358.00	0.1519
2359.00	0.1518
2360.00	0.1517
2361.00	0.1515
2362.00	0.1511
2363.00	0.1512
2364.00	0.1510
2365.00	0.1506
2366.00	0.1510
2367.00	0.1509
2368.00	0.1507
2369.00	0.1507
2370.00	0.1509
2371.00	0.1507
2372.00	0.1504
2373.00	0.1502
2374.00	0.1501
2375.00	0.1503
2376.00	0.1501
2377.00	0.1501
2378.00	0.1502
2379.00	0.1508
2380.00	0.1502
2381.00	0.1499
2382.00	0.1501
2383.00	0.1504
2384.00	0.1497
2385.00	0.1500
2386.00	0.1504
2387.00	0.1506
2388.00	0.1502
2389.00	0.1501
2390.00	0.1498
2391.00	0.1497
2392.00	0.1495
2393.00	0.1496
2394.00	0.1499
2395.00	0.1499
2396.00	0.1501
2397.00	0.1501
2398.00	0.1498
2399.00	0.1493
2400.00	0.1493
2401.00	0.1486
2402.00	0.1484
2403.00	0.1485
2404.00	0.1487
2405.00	0.1487
2406.00	0.1490
2407.00	0.1491
2408.00	0.1489
2409.00	0.1489
2410.00	0.1488
2411.00	0.1489
2412.00	0.1489
2413.00	0.1489
2414.00	0.1489
2415.00	0.1490
2416.00	0.1488
2417.00	0.1490
2418.00	0.1492
2419.00	0.1494
2420.00	0.1489
2421.00	0.1489
2422.00	0.1484
2423.00	0.1481
2424.00	0.1480
2425.00	0.1482
2426.00	0.1480
2427.00	0.1481
2428.00	0.1484
2429.00	0.1481
2430.00	0.1480
2431.00	0.1479
2432.00	0.1479
2433.00	0.1476
2434.00	0.1478
2435.00	0.1479
2436.00	0.1481
2437.00	0.1482
2438.00	0.1482
2439.00	0.1480
2440.00	0.1478
2441.00	0.1476
2442.00	0.1475
2443.00	0.1474
2444.00	0.1472
2445.00	0.1472
2446.00	0.1471
2447.00	0.1471
2448.00	0.1465
2449.00	0.1464
2450.00	0.1462
2451.00	0.1463
2452.00	0.1464
2453.00	0.1468
2454.00	0.1463
2455.00	0.1467
2456.00	0.1465
2457.00	0.1463
2458.00	0.1464
2459.00	0.1469
2460.00	0.1463
2461.00	0.1463
2462.00	0.1460
2463.00	0.1461
2464.00	0.1454
2465.00	0.1452
2466.00	0.1451
2467.00	0.1454
2468.00	0.1450
2469.00	0.1455
2470.00	0.1457
2471.00	0.1457
2472.00	0.1451
2473.00	0.1451
2474.00	0.1449
2475.00	0.1451
2476.00	0.1452
2477.00	0.1457
2478.00	0.1455
2479.00	0.1456
2480.00	0.1457
2481.00	0.1455
2482.00	0.1449
2483.00	0.1448
2484.00	0.1446
2485.00	0.1443
2486.00	0.1442
2487.00	0.1450
2488.00	0.1450
2489.00	0.1448
2490.00	0.1446
2491.00	0.1445
2492.00	0.1440
2493.00	0.1439
2494.00	0.1441
2495.00	0.1437
2496.00	0.1440
2497.00	0.1436
2498.00	0.1431
2499.00	0.1432
2500.00	0.1439
2501.00	0.1444
2502.00	0.1443
2503.00	0.1447
2504.00	0.1452
2505.00	0.1452
2506.00	0.1452
2507.00	0.1451
2508.00	0.1445
2509.00	0.1446
2510.00	0.1445
2511.00	0.1446
2512.00	0.1444
2513.00	0.1442
2514.00	0.1443
2515.00	0.1445
2516.00	0.1445
2517.00	0.1446
2518.00	0.1446
2519.00	0.1446
2520.00	0.1447
2521.00	0.1445
2522.00	0.1445
2523.00	0.1442
2524.00	0.1440
2525.00	0.1437
2526.00	0.1435
2527.00	0.1434
2528.00	0.1433
2529.00	0.1432
2530.00	0.1431
2531.00	0.1430
2532.00	0.1430
2533.00	0.1429
2534.00	0.1430
2535.00	0.1429
2536.00	0.1427
2537.00	0.1427
2538.00	0.1427
2539.00	0.1427
2540.00	0.1427
2541.00	0.1425
2542.00	0.1425
2543.00	0.1426
2544.00	0.1423
2545.00	0.1420
2546.00	0.1414
2547.00	0.1411
2548.00	0.1409
2549.00	0.1407
2550.00	0.1408
2551.00	0.1407
2552.00	0.1407
2553.00	0.1405
2554.00	0.1402
2555.00	0.1402
2556.00	0.1401
2557.00	0.1398
2558.00	0.1400
2559.00	0.1398
2560.00	0.1404
2561.00	0.1410
2562.00	0.1412
2563.00	0.1415
2564.00	0.1418
2565.00	0.1415
2566.00	0.1419
2567.00	0.1414
2568.00	0.1412
2569.00	0.1408
2570.00	0.1407
2571.00	0.1405
2572.00	0.1407
2573.00	0.1413
2574.00	0.1413
2575.00	0.1416
2576.00	0.1419
2577.00	0.1420
2578.00	0.1419
2579.00	0.1420
2580.00	0.1413
2581.00	0.1413
2582.00	0.1407
2583.00	0.1402
2584.00	0.1394
2585.00	0.1393
2586.00	0.1387
2587.00	0.1388
2588.00	0.1393
2589.00	0.1396
2590.00	0.1396
2591.00	0.1401
2592.00	0.1398
2593.00	0.1400
2594.00	0.1398
2595.00	0.1391
2596.00	0.1387
2597.00	0.1385
2598.00	0.1383
2599.00	0.1386
2600.00	0.1389
2601.00	0.1388
2602.00	0.1386
2603.00	0.1384
2604.00	0.1385
2605.00	0.1378
2606.00	0.1375
2607.00	0.1372
2608.00	0.1369
2609.00	0.1366
2610.00	0.1369
2611.00	0.1367
2612.00	0.1370
2613.00	0.1372
2614.00	0.1371
2615.00	0.1376
2616.00	0.1381
2617.00	0.1378
2618.00	0.1382
2619.00	0.1384
2620.00	0.1377
2621.00	0.1375
2622.00	0.1372
2623.00	0.1368
2624.00	0.1368
2625.00	0.1365
2626.00	0.1367
2627.00	0.1368
2628.00	0.1369
2629.00	0.1368
2630.00	0.1369
2631.00	0.1371
2632.00	0.1371
2633.00	0.1366
2634.00	0.1367
2635.00	0.1365
2636.00	0.1364
2637.00	0.1362
2638.00	0.1358
2639.00	0.1358
2640.00	0.1358
2641.00	0.1356
2642.00	0.1357
2643.00	0.1357
2644.00	0.1358
2645.00	0.1357
2646.00	0.1358
2647.00	0.1359
2648.00	0.1359
2649.00	0.1357
2650.00	0.1356
2651.00	0.1355
2652.00	0.1356
2653.00	0.1357
2654.00	0.1357
2655.00	0.1355
2656.00	0.1353
2657.00	0.1351
2658.00	0.1348
2659.00	0.1341
2660.00	0.1339
2661.00	0.1332
2662.00	0.1333
2663.00	0.1332
2664.00	0.1336
2665.00	0.1338
2666.00	0.1343
2667.00	0.1345
2668.00	0.1346
2669.00	0.1347
2670.00	0.1352
2671.00	0.1350
2672.00	0.1347
2673.00	0.1346
2674.00	0.1344
2675.00	0.1335
2676.00	0.1330
2677.00	0.1332
2678.00	0.1327
2679.00	0.1323
2680.00	0.1320
2681.00	0.1315
2682.00	0.1325
2683.00	0.1325
2684.00	0.1314
2685.00	0.1306
2686.00	0.1310
2687.00	0.1307
2688.00	0.1302
2689.00	0.1317
2690.00	0.1310
2691.00	0.1323
2692.00	0.1333
2693.00	0.1351
2694.00	0.1359
2695.00	0.1367
2696.00	0.1360
2697.00	0.1410
2698.00	0.1437
2699.00	0.1477
2700.00	0.1500
2701.00	0.1542
2702.00	0.1570
2703.00	0.1605
2704.00	0.1647
2705.00	0.1689
2706.00	0.1716
2707.00	0.1759
2708.00	0.1788
2709.00	0.1829
2710.00	0.1855
2711.00	0.1890
2712.00	0.1915
2713.00	0.1948
2714.00	0.1977
2715.00	0.1987
2716.00	0.2016
2717.00	0.2018
2718.00	0.2012
2719.00	0.2019
2720.00	0.2018
2721.00	0.2046
2722.00	0.2052
2723.00	0.2034
2724.00	0.2022
2725.00	0.2016
2726.00	0.2025
2727.00	0.2003
2728.00	0.1993
2729.00	0.1962
2730.00	0.1933
2731.00	0.1915
2732.00	0.1882
2733.00	0.1865
2734.00	0.1858
2735.00	0.1842
2736.00	0.1816
2737.00	0.1785
2738.00	0.1767
2739.00	0.1748
2740.00	0.1745
2741.00	0.1733
2742.00	0.1707
2743.00	0.1681
2744.00	0.1649
2745.00	0.1633
2746.00	0.1597
2747.00	0.1572
2748.00	0.1555
2749.00	0.1532
2750.00	0.1509
2751.00	0.1479
2752.00	0.1462
2753.00	0.1434
2754.00	0.1417
2755.00	0.1396
2756.00	0.1364
2757.00	0.1344
2758.00	0.1331
2759.00	0.1306
2760.00	0.1276
2761.00	0.1265
2762.00	0.1248
2763.00	0.1228
2764.00	0.1213
2765.00	0.1191
2766.00	0.1176
2767.00	0.1170
2768.00	0.1167
2769.00	0.1153
2770.00	0.1140
2771.00	0.1134
2772.00	0.1122
2773.00	0.1121
2774.00	0.1117
2775.00	0.1114
2776.00	0.1114
2777.00	0.1106
2778.00	0.1098
2779.00	0.1091
2780.00	0.1083
2781.00	0.1085
2782.00	0.1085
2783.00	0.1077
2784.00	0.1075
2785.00	0.1068
2786.00	0.1062
2787.00	0.1060
2788.00	0.1060
2789.00	0.1062
2790.00	0.1062
2791.00	0.1065
2792.00	0.1059
2793.00	0.1056
2794.00	0.1057
2795.00	0.1055
2796.00	0.1057
2797.00	0.1057
2798.00	0.1053
2799.00	0.1051
2800.00	0.1051
2801.00	0.1048
2802.00	0.1048
2803.00	0.1054
2804.00	0.1059
2805.00	0.1060
2806.00	0.1062
2807.00	0.1065
2808.00	0.1067
2809.00	0.1071
2810.00	0.1073
2811.00	0.1071
2812.00	0.1075
2813.00	0.1077
2814.00	0.1077
2815.00	0.1080
2816.00	0.1085
2817.00	0.1088
2818.00	0.1087
2819.00	0.1093
2820.00	0.1097
2821.00	0.1102
2822.00	0.1105
2823.00	0.1106
2824.00	0.1110
2825.00	0.1111
2826.00	0.1114
2827.00	0.1116
2828.00	0.1117
2829.00	0.1122
2830.00	0.1126
2831.00	0.1127
2832.00	0.1128
2833.00	0.1133
2834.00	0.1135
2835.00	0.1138
2836.00	0.1144
2837.00	0.1145
2838.00	0.1146
2839.00	0.1148
2840.00	0.1151
2841.00	0.1152
2842.00	0.1155
2843.00	0.1158
2844.00	0.1159
2845.00	0.1160
2846.00	0.1161
2847.00	0.1161
2848.00	0.1164
2849.00	0.1168
2850.00	0.1170
2851.00	0.1171
2852.00	0.1172
2853.00	0.1173
2854.00	0.1174
2855.00	0.1175
2856.00	0.1178
2857.00	0.1178
2858.00	0.1180
2859.00	0.1179
2860.00	0.1179
2861.00	0.1180
2862.00	0.1182
2863.00	0.1182
2864.00	0.1183
2865.00	0.1183
2866.00	0.1185
2867.00	0.1187
2868.00	0.1188
2869.00	0.1190
2870.00	0.1190
2871.00	0.1193
2872.00	0.1192
2873.00	0.1192
2874.00	0.1194
2875.00	0.1195
2876.00	0.1195
2877.00	0.1195
2878.00	0.1195
2879.00	0.1197
2880.00	0.1195
2881.00	0.1197
2882.00	0.1195
2883.00	0.1197
2884.00	0.1197
2885.00	0.1196
2886.00	0.1196
2887.00	0.1197
2888.00	0.1198
2889.00	0.1197
2890.00	0.1198
2891.00	0.1199
2892.00	0.1199
2893.00	0.1199
2894.00	0.1199
2895.00	0.1199
2896.00	0.1198
2897.00	0.1197
2898.00	0.1197
2899.00	0.1197
2900.00	0.1196
2901.00	0.1197
2902.00	0.1197
2903.00	0.1196
2904.00	0.1196
2905.00	0.1195
2906.00	0.1194
2907.00	0.1196
2908.00	0.1197
2909.00	0.1196
2910.00	0.1196
2911.00	0.1196
2912.00	0.1195
2913.00	0.1195
2914.00	0.1197
2915.00	0.1198
2916.00	0.1198
2917.00	0.1202
2918.00	0.1202
2919.00	0.1202
2920.00	0.1204
2921.00	0.1203
2922.00	0.1205
2923.00	0.1205
2924.00	0.1204
2925.00	0.1203
2926.00	0.1202
2927.00	0.1203
2928.00	0.1202
2929.00	0.1201
2930.00	0.1199
2931.00	0.1199
2932.00	0.1199
2933.00	0.1197
2934.00	0.1198
2935.00	0.1196
2936.00	0.1196
2937.00	0.1196
2938.00	0.1194
2939.00	0.1193
2940.00	0.1192
2941.00	0.1195
2942.00	0.1193
2943.00	0.1192
2944.00	0.1192
2945.00	0.1190
2946.00	0.1191
2947.00	0.1188
2948.00	0.1187
2949.00	0.1187
2950.00	0.1187
2951.00	0.1189
2952.00	0.1189
2953.00	0.1191
2954.00	0.1191
2955.00	0.1192
2956.00	0.1191
2957.00	0.1192
2958.00	0.1193
2959.00	0.1193
2960.00	0.1192
2961.00	0.1189
2962.00	0.1190
2963.00	0.1188
2964.00	0.1190
2965.00	0.1190
2966.00	0.1188
2967.00	0.1188
2968.00	0.1188
2969.00	0.1189
2970.00	0.1190
2971.00	0.1192
2972.00	0.1192
2973.00	0.1193
2974.00	0.1194
2975.00	0.1190
2976.00	0.1188
2977.00	0.1191
2978.00	0.1190
2979.00	0.1187
2980.00	0.1186
2981.00	0.1184
2982.00	0.1186
2983.00	0.1187
2984.00	0.1182
2985.00	0.1182
2986.00	0.1184
2987.00	0.1185
2988.00	0.1183
2989.00	0.1183
2990.00	0.1184
2991.00	0.1187
2992.00	0.1187
2993.00	0.1183
2994.00	0.1185
2995.00	0.1187
2996.00	0.1190
2997.00	0.1193
2998.00	0.1196
2999.00	0.1201
3000.00	0.1206
3001.00	0.1207
3002.00	0.1208
3003.00	0.1211
3004.00	0.1213
3005.00	0.1214
3006.00	0.1217
3007.00	0.1219
3008.00	0.1220
3009.00	0.1222
3010.00	0.1221
3011.00	0.1221
3012.00	0.1221
3013.00	0.1219
3014.00	0.1218
3015.00	0.1218
3016.00	0.1218
3017.00	0.1218
3018.00	0.1217
3019.00	0.1217
3020.00	0.1216
3021.00	0.1216
3022.00	0.1213
3023.00	0.1212
3024.00	0.1212
3025.00	0.1213
3026.00	0.1211
3027.00	0.1212
3028.00	0.1211
3029.00	0.1210
3030.00	0.1210
3031.00	0.1210
3032.00	0.1208
3033.00	0.1207
3034.00	0.1206
3035.00	0.1203
3036.00	0.1202
3037.00	0.1203
3038.00	0.1202
3039.00	0.1203
3040.00	0.1202
3041.00	0.1200
3042.00	0.1198
3043.00	0.1197
3044.00	0.1196
3045.00	0.1196
3046.00	0.1196
3047.00	0.1194
3048.00	0.1194
3049.00	0.1193
3050.00	0.1194
3051.00	0.1195
3052.00	0.1199
3053.00	0.1199
3054.00	0.1199
3055.00	0.1199
3056.00	0.1200
3057.00	0.1200
3058.00	0.1200
3059.00	0.1201
3060.00	0.1202
3061.00	0.1200
3062.00	0.1201
3063.00	0.1201
3064.00	0.1201
3065.00	0.1202
3066.00	0.1201
3067.00	0.1201
3068.00	0.1200
3069.00	0.1197
3070.00	0.1198
3071.00	0.1197
3072.00	0.1197
3073.00	0.1195
3074.00	0.1194
3075.00	0.1193
3076.00	0.1193
3077.00	0.1191
3078.00	0.1191
3079.00	0.1189
3080.00	0.1187
3081.00	0.1185
3082.00	0.1185
3083.00	0.1184
3084.00	0.1183
3085.00	0.1182
3086.00	0.1182
3087.00	0.1180
3088.00	0.1180
3089.00	0.1179
3090.00	0.1177
3091.00	0.1178
3092.00	0.1179
3093.00	0.1178
3094.00	0.1178
3095.00	0.1177
3096.00	0.1177
3097.00	0.1177
3098.00	0.1177
3099.00	0.1175
3100.00	0.1173
3101.00	0.1174
3102.00	0.1175
3103.00	0.1175
3104.00	0.1176
3105.00	0.1176
3106.00	0.1175
3107.00	0.1176
3108.00	0.1176
3109.00	0.1175
3110.00	0.1175
3111.00	0.1174
3112.00	0.1173
3113.00	0.1173
3114.00	0.1173
3115.00	0.1176
3116.00	0.1176
3117.00	0.1177
3118.00	0.1174
3119.00	0.1172
3120.00	0.1171
3121.00	0.1170
3122.00	0.1166
3123.00	0.1166
3124.00	0.1165
3125.00	0.1164
3126.00	0.1165
3127.00	0.1164
3128.00	0.1165
3129.00	0.1166
3130.00	0.1165
3131.00	0.1162
3132.00	0.1159
3133.00	0.1160
3134.00	0.1158
3135.00	0.1156
3136.00	0.1157
3137.00	0.1157
3138.00	0.1154
3139.00	0.1155
3140.00	0.1154
3141.00	0.1155
3142.00	0.1154
3143.00	0.1149
3144.00	0.1150
3145.00	0.1151
3146.00	0.1150
3147.00	0.1148
3148.00	0.1150
3149.00	0.1149
3150.00	0.1146
3151.00	0.1146
3152.00	0.1145
3153.00	0.1145
3154.00	0.1140
3155.00	0.1139
3156.00	0.1135
3157.00	0.1135
3158.00	0.1131
3159.00	0.1132
3160.00	0.1132
3161.00	0.1131
3162.00	0.1129
3163.00	0.1127
3164.00	0.1128
3165.00	0.1125
3166.00	0.1129
3167.00	0.1129
3168.00	0.1130
3169.00	0.1131
3170.00	0.1128
3171.00	0.1132
3172.00	0.1137
3173.00	0.1137
3174.00	0.1136
3175.00	0.1139
3176.00	0.1137
3177.00	0.1135
3178.00	0.1132
3179.00	0.1127
3180.00	0.1130
3181.00	0.1127
3182.00	0.1130
3183.00	0.1128
3184.00	0.1127
3185.00	0.1127
3186.00	0.1129
3187.00	0.1137
3188.00	0.1139
3189.00	0.1137
3190.00	0.1138
3191.00	0.1138
3192.00	0.1133
3193.00	0.1129
3194.00	0.1133
3195.00	0.1137
3196.00	0.1142
3197.00	0.1137
3198.00	0.1143
3199.00	0.1136
3200.00	0.1131
3201.00	0.1133
3202.00	0.1129
3203.00	0.1130
3204.00	0.1123
3205.00	0.1117
3206.00	0.1113
3207.00	0.1105
3208.00	0.1103
3209.00	0.1106
3210.00	0.1115
3211.00	0.1104
3212.00	0.1102
3213.00	0.1100
3214.00	0.1098
3215.00	0.1093
3216.00	0.1092
3217.00	0.1097
3218.00	0.1095
3219.00	0.1096
3220.00	0.1095
3221.00	0.1092
3222.00	0.1092
3223.00	0.1091
3224.00	0.1094
3225.00	0.1108
3226.00	0.1112
3227.00	0.1098
3228.00	0.1107
3229.00	0.1108
3230.00	0.1108
3231.00	0.1105
3232.00	0.1104
3233.00	0.1108
3234.00	0.1101
3235.00	0.1101
3236.00	0.1102
3237.00	0.1103
3238.00	0.1106
3239.00	0.1108
3240.00	0.1104
3241.00	0.1105
3242.00	0.1089
3243.00	0.1084
3244.00	0.1089
3245.00	0.1082
3246.00	0.1076
3247.00	0.1075
3248.00	0.1087
3249.00	0.1088
3250.00	0.1090
3251.00	0.1096
3252.00	0.1090
3253.00	0.1088
3254.00	0.1079
3255.00	0.1060
3256.00	0.1057
3257.00	0.1064
3258.00	0.1068
3259.00	0.1081
3260.00	0.1073
3261.00	0.1089
3262.00	0.1080
3263.00	0.1064
3264.00	0.1060
3265.00	0.1058
3266.00	0.1067
3267.00	0.1060
3268.00	0.1045
3269.00	0.1047
3270.00	0.1050
3271.00	0.1052
3272.00	0.1046
3273.00	0.1035
3274.00	0.1027
3275.00	0.1015
3276.00	0.1009
3277.00	0.1002
3278.00	0.1001
3279.00	0.1006
3280.00	0.1020
3281.00	0.1025
3282.00	0.1021
3283.00	0.1016
3284.00	0.1018
3285.00	0.1027
3286.00	0.1038
3287.00	0.1044
3288.00	0.1033
3289.00	0.1061
3290.00	0.1067
3291.00	0.1055
3292.00	0.1070
3293.00	0.1070
3294.00	0.1088
3295.00	0.1078
3296.00	0.1091
3297.00	0.1099
3298.00	0.1098
3299.00	0.1103
3300.00	0.1101
