"RawData - P3h-Doped F4tcnq_CF-10mmol"
"Wavelength nm.","Abs."
300.00, 
301.00, 
302.00, 
303.00, 
304.00, 
305.00, 
306.00, 
307.00, 
308.00, 
309.00, 
310.00, 
311.00, 
312.00, 
313.00, 
314.00, 
315.00, 
316.00, 
317.00, 
318.00, 
319.00, 
320.00, 
321.00, 
322.00, 
323.00, 
324.00, 
325.00, 
326.00, 
327.00, 
328.00, 
329.00, 
330.00, 
331.00, 
332.00, 
333.00, 
334.00, 
335.00, 
336.00, 
337.00, 
338.00, 
339.00, 
340.00, 
341.00, 
342.00, 
343.00, 
344.00, 
345.00, 
346.00, 
347.00, 
348.00, 
349.00, 
350.00, 
351.00, 
352.00, 
353.00, 
354.00, 
355.00, 
356.00, 
357.00, 
358.00, 
359.00, 
360.00, 
361.00, 
362.00, 
363.00, 
364.00, 
365.00, 
366.00, 
367.00, 
368.00, 
369.00, 
370.00, 
371.00, 
372.00, 
373.00, 
374.00, 
375.00, 
376.00, 
377.00, 
378.00, 
379.00, 
380.00, 
381.00, 
382.00, 
383.00, 
384.00, 
385.00, 
386.00, 
387.00, 
388.00, 
389.00, 
390.00, 
391.00, 
392.00, 
393.00, 
394.00, 
395.00, 
396.00, 
397.00, 
398.00, 
399.00, 
400.00, 
401.00, 
402.00, 
403.00, 
404.00, 
405.00, 
406.00, 
407.00, 
408.00, 
409.00, 
410.00, 
411.00, 
412.00, 
413.00, 
414.00, 
415.00, 
416.00, 
417.00, 
418.00, 
419.00, 
420.00, 
421.00, 
422.00, 
423.00, 
424.00, 
425.00, 
426.00, 
427.00, 
428.00, 
429.00, 
430.00, 
431.00, 
432.00, 
433.00, 
434.00, 
435.00, 
436.00, 
437.00, 
438.00, 
439.00, 
440.00, 
441.00, 
442.00, 
443.00, 
444.00, 
445.00, 
446.00, 
447.00, 
448.00, 
449.00, 
450.00, 
451.00, 
452.00, 
453.00, 
454.00, 
455.00, 
456.00, 
457.00, 
458.00, 
459.00, 
460.00, 
461.00, 
462.00, 
463.00, 
464.00, 
465.00, 
466.00, 
467.00, 
468.00, 
469.00, 
470.00, 
471.00, 
472.00, 
473.00, 
474.00, 
475.00, 
476.00, 
477.00, 
478.00, 
479.00, 
480.00, 
481.00, 
482.00, 
483.00, 
484.00, 
485.00, 
486.00, 
487.00, 
488.00, 
489.00, 
490.00, 
491.00, 
492.00, 
493.00, 
494.00, 
495.00, 
496.00, 
497.00, 
498.00, 
499.00, 
500.00, 
501.00, 
502.00, 
503.00, 
504.00, 
505.00, 
506.00, 
507.00, 
508.00, 
509.00, 
510.00, 
511.00, 
512.00, 
513.00, 
514.00, 
515.00, 
516.00, 
517.00, 
518.00, 
519.00, 
520.00, 
521.00, 
522.00, 
523.00, 
524.00, 
525.00, 
526.00, 
527.00, 
528.00, 
529.00, 
530.00, 
531.00, 
532.00, 
533.00, 
534.00, 
535.00, 
536.00, 
537.00, 
538.00, 
539.00, 
540.00, 
541.00, 
542.00, 
543.00, 
544.00, 
545.00, 
546.00, 
547.00, 
548.00, 
549.00, 
550.00, 
551.00, 
552.00, 
553.00, 
554.00, 
555.00, 
556.00, 
557.00, 
558.00, 
559.00, 
560.00, 
561.00, 
562.00, 
563.00, 
564.00, 
565.00, 
566.00, 
567.00, 
568.00, 
569.00, 
570.00, 
571.00, 
572.00, 
573.00, 
574.00, 
575.00, 
576.00, 
577.00, 
578.00, 
579.00, 
580.00, 
581.00, 
582.00, 
583.00, 
584.00, 
585.00, 
586.00, 
587.00, 
588.00, 
589.00, 
590.00, 
591.00, 
592.00, 
593.00, 
594.00, 
595.00, 
596.00, 
597.00, 
598.00, 
599.00, 
600.00, 
601.00, 
602.00, 
603.00, 
604.00, 
605.00, 
606.00, 
607.00, 
608.00, 
609.00, 
610.00, 
611.00, 
612.00, 
613.00, 
614.00, 
615.00, 
616.00, 
617.00, 
618.00, 
619.00, 
620.00, 
621.00, 
622.00, 
623.00, 
624.00, 
625.00, 
626.00, 
627.00, 
628.00, 
629.00, 
630.00, 
631.00, 
632.00, 
633.00, 
634.00, 
635.00, 
636.00, 
637.00, 
638.00, 
639.00, 
640.00, 
641.00, 
642.00, 
643.00, 
644.00, 
645.00, 
646.00, 
647.00, 
648.00, 
649.00, 
650.00, 
651.00, 
652.00, 
653.00, 
654.00, 
655.00, 
656.00, 
657.00, 
658.00, 
659.00, 
660.00, 
661.00, 
662.00, 
663.00, 
664.00, 
665.00, 
666.00, 
667.00, 
668.00, 
669.00, 
670.00, 
671.00, 
672.00, 
673.00, 
674.00, 
675.00, 
676.00, 
677.00, 
678.00, 
679.00, 
680.00, 
681.00, 
682.00, 
683.00, 
684.00, 
685.00, 
686.00, 
687.00, 
688.00, 
689.00, 
690.00, 
691.00, 
692.00, 
693.00, 
694.00, 
695.00, 
696.00, 
697.00, 
698.00, 
699.00, 
700.00, 
701.00, 
702.00, 
703.00, 
704.00, 
705.00, 
706.00, 
707.00, 
708.00, 
709.00, 
710.00, 
711.00, 
712.00, 
713.00, 
714.00, 
715.00, 
716.00, 
717.00, 
718.00, 
719.00, 
720.00, 
721.00, 
722.00, 
723.00, 
724.00, 
725.00, 
726.00, 
727.00, 
728.00, 
729.00, 
730.00, 
731.00, 
732.00, 
733.00, 
734.00, 
735.00, 
736.00, 
737.00, 
738.00, 
739.00, 
740.00, 
741.00, 
742.00, 
743.00, 
744.00, 
745.00, 
746.00, 
747.00, 
748.00, 
749.00, 
750.00, 
751.00, 
752.00, 
753.00, 
754.00, 
755.00, 
756.00, 
757.00, 
758.00, 
759.00, 
760.00, 
761.00, 
762.00, 
763.00, 
764.00, 
765.00, 
766.00, 
767.00, 
768.00, 
769.00, 
770.00, 
771.00, 
772.00, 
773.00, 
774.00, 
775.00, 
776.00, 
777.00, 
778.00, 
779.00, 
780.00, 
781.00, 
782.00, 
783.00, 
784.00, 
785.00, 
786.00, 
787.00, 
788.00, 
789.00, 
790.00, 
791.00, 
792.00, 
793.00, 
794.00, 
795.00, 
796.00, 
797.00, 
798.00, 
799.00, 
800.00, 
801.00, 
802.00, 
803.00, 
804.00, 
805.00, 
806.00, 
807.00, 
808.00, 
809.00, 
810.00, 
811.00, 
812.00, 
813.00, 
814.00, 
815.00, 
816.00, 
817.00, 
818.00, 
819.00, 
820.00, 
821.00, 
822.00, 
823.00, 
824.00, 
825.00, 
826.00, 
827.00, 
828.00, 
829.00, 
830.00, 
831.00, 
832.00, 
833.00, 
834.00, 
835.00, 
836.00, 
837.00, 
838.00, 
839.00, 
840.00, 
841.00, 
842.00, 
843.00, 
844.00, 
845.00, 
846.00, 
847.00, 
848.00, 
849.00, 
850.00, 
851.00, 
852.00, 
853.00, 
854.00, 
855.00, 
856.00, 
857.00, 
858.00, 
859.00, 
860.00, 
861.00, 
862.00, 
863.00, 
864.00, 
865.00, 
866.00, 
867.00, 
868.00, 
869.00, 
870.00, 
871.00, 
872.00, 
873.00, 
874.00, 
875.00, 
876.00, 
877.00, 
878.00, 
879.00, 
880.00, 
881.00, 
882.00, 
883.00, 
884.00, 
885.00, 
886.00, 
887.00, 
888.00, 
889.00, 
890.00, 
891.00, 
892.00, 
893.00, 
894.00, 
895.00, 
896.00, 
897.00, 
898.00, 
899.00, 
900.00, 
901.00, 
902.00, 
903.00, 
904.00, 
905.00, 
906.00, 
907.00, 
908.00, 
909.00, 
910.00, 
911.00, 
912.00, 
913.00, 
914.00, 
915.00, 
916.00, 
917.00, 
918.00, 
919.00, 
920.00, 
921.00, 
922.00, 
923.00, 
924.00, 
925.00, 
926.00, 
927.00, 
928.00, 
929.00, 
930.00, 
931.00, 
932.00, 
933.00, 
934.00, 
935.00, 
936.00, 
937.00, 
938.00, 
939.00, 
940.00, 
941.00, 
942.00, 
943.00, 
944.00, 
945.00, 
946.00, 
947.00, 
948.00, 
949.00, 
950.00, 
951.00, 
952.00, 
953.00, 
954.00, 
955.00, 
956.00, 
957.00, 
958.00, 
959.00, 
960.00, 
961.00, 
962.00, 
963.00, 
964.00, 
965.00, 
966.00, 
967.00, 
968.00, 
969.00, 
970.00, 
971.00, 
972.00, 
973.00, 
974.00, 
975.00, 
976.00, 
977.00, 
978.00, 
979.00, 
980.00, 
981.00, 
982.00, 
983.00, 
984.00, 
985.00, 
986.00, 
987.00, 
988.00, 
989.00, 
990.00, 
991.00, 
992.00, 
993.00, 
994.00, 
995.00, 
996.00, 
997.00, 
998.00, 
999.00, 
1000.00,0.1109
1001.00, 
1002.00,0.1099
1003.00, 
1004.00,0.1085
1005.00, 
1006.00,0.1071
1007.00, 
1008.00,0.1057
1009.00, 
1010.00,0.1043
1011.00, 
1012.00,0.1029
1013.00, 
1014.00,0.1015
1015.00, 
1016.00,0.1002
1017.00, 
1018.00,0.0988
1019.00, 
1020.00,0.0976
1021.00, 
1022.00,0.0962
1023.00, 
1024.00,0.0949
1025.00, 
1026.00,0.0935
1027.00, 
1028.00,0.0923
1029.00, 
1030.00,0.0912
1031.00, 
1032.00,0.0899
1033.00, 
1034.00,0.0887
1035.00, 
1036.00,0.0874
1037.00, 
1038.00,0.0863
1039.00, 
1040.00,0.0851
1041.00, 
1042.00,0.0841
1043.00, 
1044.00,0.0828
1045.00, 
1046.00,0.0819
1047.00, 
1048.00,0.0808
1049.00, 
1050.00,0.0797
1051.00, 
1052.00,0.0786
1053.00, 
1054.00,0.0775
1055.00, 
1056.00,0.0765
1057.00, 
1058.00,0.0755
1059.00, 
1060.00,0.0746
1061.00, 
1062.00,0.0737
1063.00, 
1064.00,0.0728
1065.00, 
1066.00,0.0720
1067.00, 
1068.00,0.0711
1069.00, 
1070.00,0.0704
1071.00, 
1072.00,0.0695
1073.00, 
1074.00,0.0687
1075.00, 
1076.00,0.0678
1077.00, 
1078.00,0.0672
1079.00, 
1080.00,0.0665
1081.00, 
1082.00,0.0659
1083.00, 
1084.00,0.0652
1085.00, 
1086.00,0.0646
1087.00, 
1088.00,0.0639
1089.00, 
1090.00,0.0634
1091.00, 
1092.00,0.0628
1093.00, 
1094.00,0.0622
1095.00, 
1096.00,0.0615
1097.00, 
1098.00,0.0611
1099.00, 
1100.00,0.0606
1101.00, 
1102.00,0.0603
1103.00, 
1104.00,0.0597
1105.00, 
1106.00,0.0592
1107.00, 
1108.00,0.0586
1109.00, 
1110.00,0.0581
1111.00, 
1112.00,0.0576
1113.00, 
1114.00,0.0573
1115.00, 
1116.00,0.0569
1117.00, 
1118.00,0.0567
1119.00, 
1120.00,0.0563
1121.00, 
1122.00,0.0560
1123.00, 
1124.00,0.0555
1125.00, 
1126.00,0.0551
1127.00, 
1128.00,0.0546
1129.00, 
1130.00,0.0544
1131.00, 
1132.00,0.0540
1133.00, 
1134.00,0.0537
1135.00, 
1136.00,0.0533
1137.00, 
1138.00,0.0530
1139.00, 
1140.00,0.0526
1141.00, 
1142.00,0.0524
1143.00, 
1144.00,0.0521
1145.00, 
1146.00,0.0520
1147.00, 
1148.00,0.0518
1149.00, 
1150.00,0.0517
1151.00, 
1152.00,0.0515
1153.00, 
1154.00,0.0514
1155.00, 
1156.00,0.0512
1157.00, 
1158.00,0.0510
1159.00, 
1160.00,0.0509
1161.00, 
1162.00,0.0508
1163.00, 
1164.00,0.0506
1165.00, 
1166.00,0.0505
1167.00, 
1168.00,0.0502
1169.00, 
1170.00,0.0502
1171.00, 
1172.00,0.0500
1173.00, 
1174.00,0.0499
1175.00, 
1176.00,0.0497
1177.00, 
1178.00,0.0498
1179.00, 
1180.00,0.0497
1181.00, 
1182.00,0.0496
1183.00, 
1184.00,0.0494
1185.00, 
1186.00,0.0493
1187.00, 
1188.00,0.0494
1189.00, 
1190.00,0.0495
1191.00, 
1192.00,0.0495
1193.00, 
1194.00,0.0495
1195.00, 
1196.00,0.0494
1197.00, 
1198.00,0.0493
1199.00, 
1200.00,0.0493
1201.00, 
1202.00,0.0493
1203.00, 
1204.00,0.0494
1205.00, 
1206.00,0.0493
1207.00, 
1208.00,0.0493
1209.00, 
1210.00,0.0494
1211.00, 
1212.00,0.0494
1213.00, 
1214.00,0.0495
1215.00, 
1216.00,0.0496
1217.00, 
1218.00,0.0496
1219.00, 
1220.00,0.0495
1221.00, 
1222.00,0.0495
1223.00, 
1224.00,0.0498
1225.00, 
1226.00,0.0498
1227.00, 
1228.00,0.0500
1229.00, 
1230.00,0.0499
1231.00, 
1232.00,0.0502
1233.00, 
1234.00,0.0502
1235.00, 
1236.00,0.0503
1237.00, 
1238.00,0.0503
1239.00, 
1240.00,0.0503
1241.00, 
1242.00,0.0504
1243.00, 
1244.00,0.0506
1245.00, 
1246.00,0.0508
1247.00, 
1248.00,0.0509
1249.00, 
1250.00,0.0510
1251.00, 
1252.00,0.0511
1253.00, 
1254.00,0.0514
1255.00, 
1256.00,0.0514
1257.00, 
1258.00,0.0515
1259.00, 
1260.00,0.0516
1261.00, 
1262.00,0.0518
1263.00, 
1264.00,0.0519
1265.00, 
1266.00,0.0520
1267.00, 
1268.00,0.0522
1269.00, 
1270.00,0.0524
1271.00, 
1272.00,0.0526
1273.00, 
1274.00,0.0528
1275.00, 
1276.00,0.0530
1277.00, 
1278.00,0.0531
1279.00, 
1280.00,0.0532
1281.00, 
1282.00,0.0534
1283.00, 
1284.00,0.0537
1285.00, 
1286.00,0.0540
1287.00, 
1288.00,0.0542
1289.00, 
1290.00,0.0544
1291.00, 
1292.00,0.0547
1293.00, 
1294.00,0.0549
1295.00, 
1296.00,0.0553
1297.00, 
1298.00,0.0555
1299.00, 
1300.00,0.0557
1301.00, 
1302.00,0.0559
1303.00, 
1304.00,0.0566
1305.00, 
1306.00,0.0570
1307.00, 
1308.00,0.0572
1309.00, 
1310.00,0.0568
1311.00, 
1312.00,0.0567
1313.00, 
1314.00,0.0568
1315.00, 
1316.00,0.0574
1317.00, 
1318.00,0.0578
1319.00, 
1320.00,0.0585
1321.00, 
1322.00,0.0590
1323.00, 
1324.00,0.0595
1325.00, 
1326.00,0.0597
1327.00, 
1328.00,0.0600
1329.00, 
1330.00,0.0603
1331.00, 
1332.00,0.0607
1333.00, 
1334.00,0.0611
1335.00, 
1336.00,0.0616
1337.00, 
1338.00,0.0620
1339.00, 
1340.00,0.0623
1341.00, 
1342.00,0.0627
1343.00, 
1344.00,0.0630
1345.00, 
1346.00,0.0634
1347.00, 
1348.00,0.0635
1349.00, 
1350.00,0.0637
1351.00, 
1352.00,0.0640
1353.00, 
1354.00,0.0645
1355.00, 
1356.00,0.0650
1357.00, 
1358.00,0.0655
1359.00, 
1360.00,0.0661
1361.00, 
1362.00,0.0665
1363.00, 
1364.00,0.0672
1365.00, 
1366.00,0.0675
1367.00, 
1368.00,0.0679
1369.00, 
1370.00,0.0683
1371.00, 
1372.00,0.0688
1373.00, 
1374.00,0.0691
1375.00, 
1376.00,0.0696
1377.00, 
1378.00,0.0698
1379.00, 
1380.00,0.0703
1381.00, 
1382.00,0.0707
1383.00, 
1384.00,0.0712
1385.00, 
1386.00,0.0717
1387.00, 
1388.00,0.0723
1389.00, 
1390.00,0.0728
1391.00, 
1392.00,0.0732
1393.00, 
1394.00,0.0736
1395.00, 
1396.00,0.0741
1397.00, 
1398.00,0.0746
1399.00, 
1400.00,0.0750
1401.00, 
1402.00,0.0754
1403.00, 
1404.00,0.0758
1405.00, 
1406.00,0.0763
1407.00, 
1408.00,0.0766
1409.00, 
1410.00,0.0770
1411.00, 
1412.00,0.0775
1413.00, 
1414.00,0.0781
1415.00, 
1416.00,0.0787
1417.00, 
1418.00,0.0793
1419.00, 
1420.00,0.0799
1421.00, 
1422.00,0.0804
1423.00, 
1424.00,0.0810
1425.00, 
1426.00,0.0816
1427.00, 
1428.00,0.0823
1429.00, 
1430.00,0.0830
1431.00, 
1432.00,0.0835
1433.00, 
1434.00,0.0840
1435.00, 
1436.00,0.0843
1437.00, 
1438.00,0.0849
1439.00, 
1440.00,0.0854
1441.00, 
1442.00,0.0863
1443.00, 
1444.00,0.0868
1445.00, 
1446.00,0.0875
1447.00, 
1448.00,0.0880
1449.00, 
1450.00,0.0888
1451.00, 
1452.00,0.0894
1453.00, 
1454.00,0.0902
1455.00, 
1456.00,0.0908
1457.00, 
1458.00,0.0916
1459.00, 
1460.00,0.0921
1461.00, 
1462.00,0.0927
1463.00, 
1464.00,0.0932
1465.00, 
1466.00,0.0939
1467.00, 
1468.00,0.0945
1469.00, 
1470.00,0.0954
1471.00, 
1472.00,0.0959
1473.00, 
1474.00,0.0966
1475.00, 
1476.00,0.0972
1477.00, 
1478.00,0.0978
1479.00, 
1480.00,0.0984
1481.00, 
1482.00,0.0991
1483.00, 
1484.00,0.0998
1485.00, 
1486.00,0.1006
1487.00, 
1488.00,0.1012
1489.00, 
1490.00,0.1018
1491.00, 
1492.00,0.1025
1493.00, 
1494.00,0.1032
1495.00, 
1496.00,0.1041
1497.00, 
1498.00,0.1047
1499.00, 
1500.00,0.1052
1501.00, 
1502.00,0.1055
1503.00, 
1504.00,0.1060
1505.00, 
1506.00,0.1069
1507.00, 
1508.00,0.1078
1509.00, 
1510.00,0.1086
1511.00, 
1512.00,0.1094
1513.00, 
1514.00,0.1100
1515.00, 
1516.00,0.1108
1517.00, 
1518.00,0.1115
1519.00, 
1520.00,0.1123
1521.00, 
1522.00,0.1130
1523.00, 
1524.00,0.1138
1525.00, 
1526.00,0.1146
1527.00, 
1528.00,0.1155
1529.00, 
1530.00,0.1161
1531.00, 
1532.00,0.1166
1533.00, 
1534.00,0.1170
1535.00, 
1536.00,0.1177
1537.00, 
1538.00,0.1186
1539.00, 
1540.00,0.1196
1541.00, 
1542.00,0.1204
1543.00, 
1544.00,0.1211
1545.00, 
1546.00,0.1218
1547.00, 
1548.00,0.1225
1549.00, 
1550.00,0.1232
1551.00, 
1552.00,0.1241
1553.00, 
1554.00,0.1250
1555.00, 
1556.00,0.1258
1557.00, 
1558.00,0.1264
1559.00, 
1560.00,0.1272
1561.00, 
1562.00,0.1279
1563.00, 
1564.00,0.1287
1565.00, 
1566.00,0.1293
1567.00, 
1568.00,0.1302
1569.00, 
1570.00,0.1309
1571.00, 
1572.00,0.1319
1573.00, 
1574.00,0.1327
1575.00, 
1576.00,0.1335
1577.00, 
1578.00,0.1341
1579.00, 
1580.00,0.1347
1581.00, 
1582.00,0.1353
1583.00, 
1584.00,0.1363
1585.00, 
1586.00,0.1372
1587.00, 
1588.00,0.1381
1589.00, 
1590.00,0.1389
1591.00, 
1592.00,0.1396
1593.00, 
1594.00,0.1402
1595.00, 
1596.00,0.1411
1597.00, 
1598.00,0.1418
1599.00, 
1600.00,0.1427
1601.00, 
1602.00,0.1435
1603.00, 
1604.00,0.1444
1605.00, 
1606.00,0.1452
1607.00, 
1608.00,0.1460
1609.00, 
1610.00,0.1467
1611.00, 
1612.00,0.1476
1613.00, 
1614.00,0.1484
1615.00, 
1616.00,0.1492
1617.00, 
1618.00,0.1500
1619.00, 
1620.00,0.1507
1621.00, 
1622.00,0.1516
1623.00, 
1624.00,0.1524
1625.00, 
1626.00,0.1531
1627.00, 
1628.00,0.1538
1629.00, 
1630.00,0.1544
1631.00, 
1632.00,0.1552
1633.00, 
1634.00,0.1560
1635.00, 
1636.00,0.1568
1637.00, 
1638.00,0.1577
1639.00, 
1640.00,0.1583
1641.00, 
1642.00,0.1590
1643.00, 
1644.00,0.1596
1645.00, 
1646.00,0.1604
1647.00, 
1648.00,0.1611
1649.00, 
1650.00,0.1627
1651.00, 
1652.00,0.1642
1653.00, 
1654.00,0.1656
1655.00, 
1656.00,0.1663
1657.00, 
1658.00,0.1669
1659.00, 
1660.00,0.1675
1661.00, 
1662.00,0.1682
1663.00, 
1664.00,0.1688
1665.00, 
1666.00,0.1696
1667.00, 
1668.00,0.1702
1669.00, 
1670.00,0.1709
1671.00, 
1672.00,0.1715
1673.00, 
1674.00,0.1721
1675.00, 
1676.00,0.1726
1677.00, 
1678.00,0.1732
1679.00, 
1680.00,0.1738
1681.00, 
1682.00,0.1745
1683.00, 
1684.00,0.1751
1685.00, 
1686.00,0.1757
1687.00, 
1688.00,0.1763
1689.00, 
1690.00,0.1769
1691.00, 
1692.00,0.1774
1693.00, 
1694.00,0.1780
1695.00, 
1696.00,0.1786
1697.00, 
1698.00,0.1791
1699.00, 
1700.00,0.1796
1701.00, 
1702.00,0.1802
1703.00, 
1704.00,0.1808
1705.00, 
1706.00,0.1814
1707.00, 
1708.00,0.1820
1709.00, 
1710.00,0.1826
1711.00, 
1712.00,0.1831
1713.00, 
1714.00,0.1836
1715.00, 
1716.00,0.1841
1717.00, 
1718.00,0.1846
1719.00, 
1720.00,0.1851
1721.00, 
1722.00,0.1857
1723.00, 
1724.00,0.1864
1725.00, 
1726.00,0.1871
1727.00, 
1728.00,0.1877
1729.00, 
1730.00,0.1882
1731.00, 
1732.00,0.1887
1733.00, 
1734.00,0.1892
1735.00, 
1736.00,0.1897
1737.00, 
1738.00,0.1902
1739.00, 
1740.00,0.1908
1741.00, 
1742.00,0.1915
1743.00, 
1744.00,0.1921
1745.00, 
1746.00,0.1927
1747.00, 
1748.00,0.1932
1749.00, 
1750.00,0.1936
1751.00, 
1752.00,0.1939
1753.00, 
1754.00,0.1945
1755.00, 
1756.00,0.1950
1757.00, 
1758.00,0.1956
1759.00, 
1760.00,0.1962
1761.00, 
1762.00,0.1968
1763.00, 
1764.00,0.1973
1765.00, 
1766.00,0.1978
1767.00, 
1768.00,0.1983
1769.00, 
1770.00,0.1988
1771.00, 
1772.00,0.1992
1773.00, 
1774.00,0.1996
1775.00, 
1776.00,0.2001
1777.00, 
1778.00,0.2006
1779.00, 
1780.00,0.2013
1781.00, 
1782.00,0.2020
1783.00, 
1784.00,0.2026
1785.00, 
1786.00,0.2030
1787.00, 
1788.00,0.2034
1789.00, 
1790.00,0.2038
1791.00, 
1792.00,0.2042
1793.00, 
1794.00,0.2046
1795.00, 
1796.00,0.2051
1797.00, 
1798.00,0.2054
1799.00, 
1800.00,0.2059
1801.00, 
1802.00,0.2065
1803.00, 
1804.00,0.2073
1805.00, 
1806.00,0.2080
1807.00, 
1808.00,0.2084
1809.00, 
1810.00,0.2088
1811.00, 
1812.00,0.2091
1813.00, 
1814.00,0.2093
1815.00, 
1816.00,0.2097
1817.00, 
1818.00,0.2103
1819.00, 
1820.00,0.2112
1821.00, 
1822.00,0.2122
1823.00, 
1824.00,0.2130
1825.00, 
1826.00,0.2134
1827.00, 
1828.00,0.2135
1829.00, 
1830.00,0.2135
1831.00, 
1832.00,0.2135
1833.00, 
1834.00,0.2139
1835.00, 
1836.00,0.2146
1837.00, 
1838.00,0.2154
1839.00, 
1840.00,0.2164
1841.00, 
1842.00,0.2169
1843.00, 
1844.00,0.2176
1845.00, 
1846.00,0.2182
1847.00, 
1848.00,0.2188
1849.00, 
1850.00,0.2192
1851.00, 
1852.00,0.2195
1853.00, 
1854.00,0.2196
1855.00, 
1856.00,0.2195
1857.00, 
1858.00,0.2197
1859.00, 
1860.00,0.2199
1861.00, 
1862.00,0.2202
1863.00, 
1864.00,0.2199
1865.00, 
1866.00,0.2200
1867.00, 
1868.00,0.2202
1869.00, 
1870.00,0.2211
1871.00, 
1872.00,0.2216
1873.00, 
1874.00,0.2217
1875.00, 
1876.00,0.2215
1877.00, 
1878.00,0.2216
1879.00, 
1880.00,0.2221
1881.00, 
1882.00,0.2225
1883.00, 
1884.00,0.2230
1885.00, 
1886.00,0.2234
1887.00, 
1888.00,0.2237
1889.00, 
1890.00,0.2240
1891.00, 
1892.00,0.2243
1893.00, 
1894.00,0.2247
1895.00, 
1896.00,0.2248
1897.00, 
1898.00,0.2250
1899.00, 
1900.00,0.2252
1901.00, 
1902.00,0.2256
1903.00, 
1904.00,0.2260
1905.00, 
1906.00,0.2262
1907.00, 
1908.00,0.2265
1909.00, 
1910.00,0.2268
1911.00, 
1912.00,0.2270
1913.00, 
1914.00,0.2269
1915.00, 
1916.00,0.2269
1917.00, 
1918.00,0.2268
1919.00, 
1920.00,0.2266
1921.00, 
1922.00,0.2267
1923.00, 
1924.00,0.2270
1925.00, 
1926.00,0.2276
1927.00, 
1928.00,0.2281
1929.00, 
1930.00,0.2286
1931.00, 
1932.00,0.2290
1933.00, 
1934.00,0.2293
1935.00, 
1936.00,0.2294
1937.00, 
1938.00,0.2293
1939.00, 
1940.00,0.2292
1941.00, 
1942.00,0.2290
1943.00, 
1944.00,0.2290
1945.00, 
1946.00,0.2290
1947.00, 
1948.00,0.2293
1949.00, 
1950.00,0.2297
1951.00, 
1952.00,0.2299
1953.00, 
1954.00,0.2300
1955.00, 
1956.00,0.2301
1957.00, 
1958.00,0.2302
1959.00, 
1960.00,0.2304
1961.00, 
1962.00,0.2304
1963.00, 
1964.00,0.2305
1965.00, 
1966.00,0.2304
1967.00, 
1968.00,0.2305
1969.00, 
1970.00,0.2305
1971.00, 
1972.00,0.2308
1973.00, 
1974.00,0.2310
1975.00, 
1976.00,0.2311
1977.00, 
1978.00,0.2312
1979.00, 
1980.00,0.2313
1981.00, 
1982.00,0.2316
1983.00, 
1984.00,0.2317
1985.00, 
1986.00,0.2318
1987.00, 
1988.00,0.2318
1989.00, 
1990.00,0.2318
1991.00, 
1992.00,0.2317
1993.00, 
1994.00,0.2317
1995.00, 
1996.00,0.2318
1997.00, 
1998.00,0.2319
1999.00, 
2000.00,0.2320
2001.00, 
2002.00,0.2321
2003.00, 
2004.00,0.2323
2005.00, 
2006.00,0.2324
2007.00, 
2008.00,0.2324
2009.00, 
2010.00,0.2324
2011.00, 
2012.00,0.2325
2013.00, 
2014.00,0.2325
2015.00, 
2016.00,0.2326
2017.00, 
2018.00,0.2327
2019.00, 
2020.00,0.2327
2021.00, 
2022.00,0.2329
2023.00, 
2024.00,0.2330
2025.00, 
2026.00,0.2329
2027.00, 
2028.00,0.2330
2029.00, 
2030.00,0.2331
2031.00, 
2032.00,0.2335
2033.00, 
2034.00,0.2337
2035.00, 
2036.00,0.2339
2037.00, 
2038.00,0.2339
2039.00, 
2040.00,0.2340
2041.00, 
2042.00,0.2339
2043.00, 
2044.00,0.2337
2045.00, 
2046.00,0.2338
2047.00, 
2048.00,0.2338
2049.00, 
2050.00,0.2344
2051.00, 
2052.00,0.2347
2053.00, 
2054.00,0.2352
2055.00, 
2056.00,0.2353
2057.00, 
2058.00,0.2356
2059.00, 
2060.00,0.2357
2061.00, 
2062.00,0.2355
2063.00, 
2064.00,0.2356
2065.00, 
2066.00,0.2358
2067.00, 
2068.00,0.2361
2069.00, 
2070.00,0.2361
2071.00, 
2072.00,0.2361
2073.00, 
2074.00,0.2360
2075.00, 
2076.00,0.2361
2077.00, 
2078.00,0.2362
2079.00, 
2080.00,0.2365
2081.00, 
2082.00,0.2365
2083.00, 
2084.00,0.2367
2085.00, 
2086.00,0.2369
2087.00, 
2088.00,0.2369
2089.00, 
2090.00,0.2369
2091.00, 
2092.00,0.2367
2093.00, 
2094.00,0.2366
2095.00, 
2096.00,0.2365
2097.00, 
2098.00,0.2364
2099.00, 
2100.00,0.2365
2101.00, 
2102.00,0.2365
2103.00, 
2104.00,0.2366
2105.00, 
2106.00,0.2367
2107.00, 
2108.00,0.2366
2109.00, 
2110.00,0.2367
2111.00, 
2112.00,0.2366
2113.00, 
2114.00,0.2365
2115.00, 
2116.00,0.2364
2117.00, 
2118.00,0.2362
2119.00, 
2120.00,0.2363
2121.00, 
2122.00,0.2365
2123.00, 
2124.00,0.2364
2125.00, 
2126.00,0.2361
2127.00, 
2128.00,0.2360
2129.00, 
2130.00,0.2361
2131.00, 
2132.00,0.2361
2133.00, 
2134.00,0.2357
2135.00, 
2136.00,0.2358
2137.00, 
2138.00,0.2359
2139.00, 
2140.00,0.2361
2141.00, 
2142.00,0.2359
2143.00, 
2144.00,0.2358
2145.00, 
2146.00,0.2355
2147.00, 
2148.00,0.2353
2149.00, 
2150.00,0.2351
2151.00, 
2152.00,0.2352
2153.00, 
2154.00,0.2351
2155.00, 
2156.00,0.2352
2157.00, 
2158.00,0.2350
2159.00, 
2160.00,0.2350
2161.00, 
2162.00,0.2349
2163.00, 
2164.00,0.2348
2165.00, 
2166.00,0.2347
2167.00, 
2168.00,0.2345
2169.00, 
2170.00,0.2345
2171.00, 
2172.00,0.2345
2173.00, 
2174.00,0.2346
2175.00, 
2176.00,0.2347
2177.00, 
2178.00,0.2348
2179.00, 
2180.00,0.2347
2181.00, 
2182.00,0.2344
2183.00, 
2184.00,0.2343
2185.00, 
2186.00,0.2343
2187.00, 
2188.00,0.2344
2189.00, 
2190.00,0.2346
2191.00, 
2192.00,0.2347
2193.00, 
2194.00,0.2350
2195.00, 
2196.00,0.2352
2197.00, 
2198.00,0.2357
2199.00, 
2200.00,0.2358
2201.00, 
2202.00,0.2361
2203.00, 
2204.00,0.2361
2205.00, 
2206.00,0.2362
2207.00, 
2208.00,0.2362
2209.00, 
2210.00,0.2363
2211.00, 
2212.00,0.2361
2213.00, 
2214.00,0.2356
2215.00, 
2216.00,0.2352
2217.00, 
2218.00,0.2350
2219.00, 
2220.00,0.2350
2221.00, 
2222.00,0.2347
2223.00, 
2224.00,0.2346
2225.00, 
2226.00,0.2342
2227.00, 
2228.00,0.2341
2229.00, 
2230.00,0.2340
2231.00, 
2232.00,0.2341
2233.00, 
2234.00,0.2340
2235.00, 
2236.00,0.2335
2237.00, 
2238.00,0.2332
2239.00, 
2240.00,0.2328
2241.00, 
2242.00,0.2328
2243.00, 
2244.00,0.2323
2245.00, 
2246.00,0.2324
2247.00, 
2248.00,0.2322
2249.00, 
2250.00,0.2322
2251.00, 
2252.00,0.2320
2253.00, 
2254.00,0.2321
2255.00, 
2256.00,0.2318
2257.00, 
2258.00,0.2316
2259.00, 
2260.00,0.2313
2261.00, 
2262.00,0.2316
2263.00, 
2264.00,0.2318
2265.00, 
2266.00,0.2317
2267.00, 
2268.00,0.2314
2269.00, 
2270.00,0.2308
2271.00, 
2272.00,0.2306
2273.00, 
2274.00,0.2304
2275.00, 
2276.00,0.2301
2277.00, 
2278.00,0.2299
2279.00, 
2280.00,0.2299
2281.00, 
2282.00,0.2299
2283.00, 
2284.00,0.2300
2285.00, 
2286.00,0.2297
2287.00, 
2288.00,0.2297
2289.00, 
2290.00,0.2295
2291.00, 
2292.00,0.2293
2293.00, 
2294.00,0.2290
2295.00, 
2296.00,0.2286
2297.00, 
2298.00,0.2285
2299.00, 
2300.00,0.2283
2301.00, 
2302.00,0.2283
2303.00, 
2304.00,0.2282
2305.00, 
2306.00,0.2280
2307.00, 
2308.00,0.2276
2309.00, 
2310.00,0.2272
2311.00, 
2312.00,0.2268
2313.00, 
2314.00,0.2267
2315.00, 
2316.00,0.2266
2317.00, 
2318.00,0.2265
2319.00, 
2320.00,0.2264
2321.00, 
2322.00,0.2262
2323.00, 
2324.00,0.2260
2325.00, 
2326.00,0.2258
2327.00, 
2328.00,0.2256
2329.00, 
2330.00,0.2256
2331.00, 
2332.00,0.2255
2333.00, 
2334.00,0.2252
2335.00, 
2336.00,0.2250
2337.00, 
2338.00,0.2246
2339.00, 
2340.00,0.2242
2341.00, 
2342.00,0.2240
2343.00, 
2344.00,0.2239
2345.00, 
2346.00,0.2237
2347.00, 
2348.00,0.2234
2349.00, 
2350.00,0.2234
2351.00, 
2352.00,0.2233
2353.00, 
2354.00,0.2233
2355.00, 
2356.00,0.2232
2357.00, 
2358.00,0.2233
2359.00, 
2360.00,0.2230
2361.00, 
2362.00,0.2227
2363.00, 
2364.00,0.2223
2365.00, 
2366.00,0.2221
2367.00, 
2368.00,0.2221
2369.00, 
2370.00,0.2219
2371.00, 
2372.00,0.2218
2373.00, 
2374.00,0.2217
2375.00, 
2376.00,0.2215
2377.00, 
2378.00,0.2215
2379.00, 
2380.00,0.2210
2381.00, 
2382.00,0.2209
2383.00, 
2384.00,0.2203
2385.00, 
2386.00,0.2202
2387.00, 
2388.00,0.2203
2389.00, 
2390.00,0.2205
2391.00, 
2392.00,0.2203
2393.00, 
2394.00,0.2198
2395.00, 
2396.00,0.2194
2397.00, 
2398.00,0.2192
2399.00, 
2400.00,0.2192
2401.00, 
2402.00,0.2188
2403.00, 
2404.00,0.2186
2405.00, 
2406.00,0.2184
2407.00, 
2408.00,0.2183
2409.00, 
2410.00,0.2181
2411.00, 
2412.00,0.2180
2413.00, 
2414.00,0.2178
2415.00, 
2416.00,0.2176
2417.00, 
2418.00,0.2176
2419.00, 
2420.00,0.2179
2421.00, 
2422.00,0.2180
2423.00, 
2424.00,0.2178
2425.00, 
2426.00,0.2173
2427.00, 
2428.00,0.2169
2429.00, 
2430.00,0.2168
2431.00, 
2432.00,0.2170
2433.00, 
2434.00,0.2167
2435.00, 
2436.00,0.2164
2437.00, 
2438.00,0.2161
2439.00, 
2440.00,0.2162
2441.00, 
2442.00,0.2159
2443.00, 
2444.00,0.2155
2445.00, 
2446.00,0.2154
2447.00, 
2448.00,0.2154
2449.00, 
2450.00,0.2155
2451.00, 
2452.00,0.2153
2453.00, 
2454.00,0.2151
2455.00, 
2456.00,0.2149
2457.00, 
2458.00,0.2148
2459.00, 
2460.00,0.2146
2461.00, 
2462.00,0.2145
2463.00, 
2464.00,0.2142
2465.00, 
2466.00,0.2139
2467.00, 
2468.00,0.2136
2469.00, 
2470.00,0.2135
2471.00, 
2472.00,0.2135
2473.00, 
2474.00,0.2135
2475.00, 
2476.00,0.2135
2477.00, 
2478.00,0.2131
2479.00, 
2480.00,0.2132
2481.00, 
2482.00,0.2131
2483.00, 
2484.00,0.2131
2485.00, 
2486.00,0.2128
2487.00, 
2488.00,0.2127
2489.00, 
2490.00,0.2125
2491.00, 
2492.00,0.2120
2493.00, 
2494.00,0.2115
2495.00, 
2496.00,0.2115
2497.00, 
2498.00,0.2115
2499.00, 
2500.00,0.2126
2501.00, 
2502.00,0.2131
2503.00, 
2504.00,0.2138
2505.00, 
2506.00,0.2134
2507.00, 
2508.00,0.2132
2509.00, 
2510.00,0.2130
2511.00, 
2512.00,0.2129
2513.00, 
2514.00,0.2128
2515.00, 
2516.00,0.2125
2517.00, 
2518.00,0.2122
2519.00, 
2520.00,0.2123
2521.00, 
2522.00,0.2123
2523.00, 
2524.00,0.2126
2525.00, 
2526.00,0.2123
2527.00, 
2528.00,0.2125
2529.00, 
2530.00,0.2124
2531.00, 
2532.00,0.2122
2533.00, 
2534.00,0.2120
2535.00, 
2536.00,0.2114
2537.00, 
2538.00,0.2117
2539.00, 
2540.00,0.2112
2541.00, 
2542.00,0.2114
2543.00, 
2544.00,0.2108
2545.00, 
2546.00,0.2109
2547.00, 
2548.00,0.2108
2549.00, 
2550.00,0.2109
2551.00, 
2552.00,0.2109
2553.00, 
2554.00,0.2111
2555.00, 
2556.00,0.2111
2557.00, 
2558.00,0.2113
2559.00, 
2560.00,0.2108
2561.00, 
2562.00,0.2105
2563.00, 
2564.00,0.2099
2565.00, 
2566.00,0.2092
2567.00, 
2568.00,0.2083
2569.00, 
2570.00,0.2073
2571.00, 
2572.00,0.2067
2573.00, 
2574.00,0.2061
2575.00, 
2576.00,0.2050
2577.00, 
2578.00,0.2045
2579.00, 
2580.00,0.2045
2581.00, 
2582.00,0.2060
2583.00, 
2584.00,0.2073
2585.00, 
2586.00,0.2084
2587.00, 
2588.00,0.2086
2589.00, 
2590.00,0.2086
2591.00, 
2592.00,0.2079
2593.00, 
2594.00,0.2069
2595.00, 
2596.00,0.2054
2597.00, 
2598.00,0.2050
2599.00, 
2600.00,0.2049
2601.00, 
2602.00,0.2063
2603.00, 
2604.00,0.2070
2605.00, 
2606.00,0.2085
2607.00, 
2608.00,0.2087
2609.00, 
2610.00,0.2089
2611.00, 
2612.00,0.2074
2613.00, 
2614.00,0.2052
2615.00, 
2616.00,0.2037
2617.00, 
2618.00,0.2032
2619.00, 
2620.00,0.2036
2621.00, 
2622.00,0.2034
2623.00, 
2624.00,0.2030
2625.00, 
2626.00,0.2020
2627.00, 
2628.00,0.2017
2629.00, 
2630.00,0.2015
2631.00, 
2632.00,0.2016
2633.00, 
2634.00,0.2019
2635.00, 
2636.00,0.2027
2637.00, 
2638.00,0.2039
2639.00, 
2640.00,0.2041
2641.00, 
2642.00,0.2038
2643.00, 
2644.00,0.2037
2645.00, 
2646.00,0.2031
2647.00, 
2648.00,0.2025
2649.00, 
2650.00,0.2013
2651.00, 
2652.00,0.2003
2653.00, 
2654.00,0.1995
2655.00, 
2656.00,0.1990
2657.00, 
2658.00,0.1998
2659.00, 
2660.00,0.1996
2661.00, 
2662.00,0.2002
2663.00, 
2664.00,0.2012
2665.00, 
2666.00,0.2046
2667.00, 
2668.00,0.2070
2669.00, 
2670.00,0.2103
2671.00, 
2672.00,0.2125
2673.00, 
2674.00,0.2151
2675.00, 
2676.00,0.2169
2677.00, 
2678.00,0.2200
2679.00, 
2680.00,0.2228
2681.00, 
2682.00,0.2258
2683.00, 
2684.00,0.2288
2685.00, 
2686.00,0.2345
2687.00, 
2688.00,0.2410
2689.00, 
2690.00,0.2502
2691.00, 
2692.00,0.2614
2693.00, 
2694.00,0.2743
2695.00, 
2696.00,0.2873
2697.00, 
2698.00,0.2964
2699.00, 
2700.00,0.3047
2701.00, 
2702.00,0.3116
2703.00, 
2704.00,0.3180
2705.00, 
2706.00,0.3244
2707.00, 
2708.00,0.3310
2709.00, 
2710.00,0.3359
2711.00, 
2712.00,0.3409
2713.00, 
2714.00,0.3442
2715.00, 
2716.00,0.3456
2717.00, 
2718.00,0.3458
2719.00, 
2720.00,0.3467
2721.00, 
2722.00,0.3451
2723.00, 
2724.00,0.3431
2725.00, 
2726.00,0.3422
2727.00, 
2728.00,0.3398
2729.00, 
2730.00,0.3339
2731.00, 
2732.00,0.3295
2733.00, 
2734.00,0.3260
2735.00, 
2736.00,0.3215
2737.00, 
2738.00,0.3178
2739.00, 
2740.00,0.3151
2741.00, 
2742.00,0.3131
2743.00, 
2744.00,0.3102
2745.00, 
2746.00,0.3078
2747.00, 
2748.00,0.3039
2749.00, 
2750.00,0.3013
2751.00, 
2752.00,0.2976
2753.00, 
2754.00,0.2930
2755.00, 
2756.00,0.2899
2757.00, 
2758.00,0.2855
2759.00, 
2760.00,0.2820
2761.00, 
2762.00,0.2778
2763.00, 
2764.00,0.2750
2765.00, 
2766.00,0.2715
2767.00, 
2768.00,0.2689
2769.00, 
2770.00,0.2652
2771.00, 
2772.00,0.2625
2773.00, 
2774.00,0.2588
2775.00, 
2776.00,0.2549
2777.00, 
2778.00,0.2516
2779.00, 
2780.00,0.2485
2781.00, 
2782.00,0.2456
2783.00, 
2784.00,0.2432
2785.00, 
2786.00,0.2409
2787.00, 
2788.00,0.2385
2789.00, 
2790.00,0.2370
2791.00, 
2792.00,0.2345
2793.00, 
2794.00,0.2321
2795.00, 
2796.00,0.2294
2797.00, 
2798.00,0.2274
2799.00, 
2800.00,0.2246
2801.00, 
2802.00,0.2223
2803.00, 
2804.00,0.2200
2805.00, 
2806.00,0.2180
2807.00, 
2808.00,0.2157
2809.00, 
2810.00,0.2137
2811.00, 
2812.00,0.2123
2813.00, 
2814.00,0.2104
2815.00, 
2816.00,0.2090
2817.00, 
2818.00,0.2079
2819.00, 
2820.00,0.2064
2821.00, 
2822.00,0.2049
2823.00, 
2824.00,0.2038
2825.00, 
2826.00,0.2026
2827.00, 
2828.00,0.2016
2829.00, 
2830.00,0.2007
2831.00, 
2832.00,0.1998
2833.00, 
2834.00,0.1990
2835.00, 
2836.00,0.1981
2837.00, 
2838.00,0.1972
2839.00, 
2840.00,0.1964
2841.00, 
2842.00,0.1954
2843.00, 
2844.00,0.1945
2845.00, 
2846.00,0.1941
2847.00, 
2848.00,0.1935
2849.00, 
2850.00,0.1929
2851.00, 
2852.00,0.1926
2853.00, 
2854.00,0.1921
2855.00, 
2856.00,0.1911
2857.00, 
2858.00,0.1903
2859.00, 
2860.00,0.1895
2861.00, 
2862.00,0.1887
2863.00, 
2864.00,0.1880
2865.00, 
2866.00,0.1873
2867.00, 
2868.00,0.1866
2869.00, 
2870.00,0.1862
2871.00, 
2872.00,0.1857
2873.00, 
2874.00,0.1852
2875.00, 
2876.00,0.1848
2877.00, 
2878.00,0.1845
2879.00, 
2880.00,0.1841
2881.00, 
2882.00,0.1837
2883.00, 
2884.00,0.1831
2885.00, 
2886.00,0.1830
2887.00, 
2888.00,0.1825
2889.00, 
2890.00,0.1821
2891.00, 
2892.00,0.1817
2893.00, 
2894.00,0.1815
2895.00, 
2896.00,0.1810
2897.00, 
2898.00,0.1808
2899.00, 
2900.00,0.1806
2901.00, 
2902.00,0.1801
2903.00, 
2904.00,0.1796
2905.00, 
2906.00,0.1789
2907.00, 
2908.00,0.1785
2909.00, 
2910.00,0.1781
2911.00, 
2912.00,0.1777
2913.00, 
2914.00,0.1777
2915.00, 
2916.00,0.1775
2917.00, 
2918.00,0.1773
2919.00, 
2920.00,0.1769
2921.00, 
2922.00,0.1766
2923.00, 
2924.00,0.1762
2925.00, 
2926.00,0.1757
2927.00, 
2928.00,0.1754
2929.00, 
2930.00,0.1751
2931.00, 
2932.00,0.1746
2933.00, 
2934.00,0.1745
2935.00, 
2936.00,0.1742
2937.00, 
2938.00,0.1737
2939.00, 
2940.00,0.1733
2941.00, 
2942.00,0.1734
2943.00, 
2944.00,0.1729
2945.00, 
2946.00,0.1730
2947.00, 
2948.00,0.1729
2949.00, 
2950.00,0.1729
2951.00, 
2952.00,0.1725
2953.00, 
2954.00,0.1722
2955.00, 
2956.00,0.1718
2957.00, 
2958.00,0.1714
2959.00, 
2960.00,0.1710
2961.00, 
2962.00,0.1707
2963.00, 
2964.00,0.1706
2965.00, 
2966.00,0.1700
2967.00, 
2968.00,0.1699
2969.00, 
2970.00,0.1699
2971.00, 
2972.00,0.1696
2973.00, 
2974.00,0.1695
2975.00, 
2976.00,0.1694
2977.00, 
2978.00,0.1689
2979.00, 
2980.00,0.1684
2981.00, 
2982.00,0.1685
2983.00, 
2984.00,0.1681
2985.00, 
2986.00,0.1678
2987.00, 
2988.00,0.1677
2989.00, 
2990.00,0.1677
2991.00, 
2992.00,0.1670
2993.00, 
2994.00,0.1669
2995.00, 
2996.00,0.1671
2997.00, 
2998.00,0.1674
2999.00, 
3000.00,0.1676
3001.00, 
3002.00,0.1679
3003.00, 
3004.00,0.1680
3005.00, 
3006.00,0.1682
3007.00, 
3008.00,0.1683
3009.00, 
3010.00,0.1683
3011.00, 
3012.00,0.1682
3013.00, 
3014.00,0.1679
3015.00, 
3016.00,0.1677
3017.00, 
3018.00,0.1675
3019.00, 
3020.00,0.1673
3021.00, 
3022.00,0.1670
3023.00, 
3024.00,0.1667
3025.00, 
3026.00,0.1666
3027.00, 
3028.00,0.1664
3029.00, 
3030.00,0.1660
3031.00, 
3032.00,0.1659
3033.00, 
3034.00,0.1658
3035.00, 
3036.00,0.1655
3037.00, 
3038.00,0.1653
3039.00, 
3040.00,0.1651
3041.00, 
3042.00,0.1649
3043.00, 
3044.00,0.1647
3045.00, 
3046.00,0.1644
3047.00, 
3048.00,0.1644
3049.00, 
3050.00,0.1641
3051.00, 
3052.00,0.1637
3053.00, 
3054.00,0.1636
3055.00, 
3056.00,0.1633
3057.00, 
3058.00,0.1631
3059.00, 
3060.00,0.1629
3061.00, 
3062.00,0.1625
3063.00, 
3064.00,0.1623
3065.00, 
3066.00,0.1619
3067.00, 
3068.00,0.1617
3069.00, 
3070.00,0.1616
3071.00, 
3072.00,0.1614
3073.00, 
3074.00,0.1612
3075.00, 
3076.00,0.1611
3077.00, 
3078.00,0.1608
3079.00, 
3080.00,0.1608
3081.00, 
3082.00,0.1607
3083.00, 
3084.00,0.1608
3085.00, 
3086.00,0.1606
3087.00, 
3088.00,0.1605
3089.00, 
3090.00,0.1603
3091.00, 
3092.00,0.1602
3093.00, 
3094.00,0.1600
3095.00, 
3096.00,0.1598
3097.00, 
3098.00,0.1596
3099.00, 
3100.00,0.1593
3101.00, 
3102.00,0.1592
3103.00, 
3104.00,0.1590
3105.00, 
3106.00,0.1587
3107.00, 
3108.00,0.1584
3109.00, 
3110.00,0.1583
3111.00, 
3112.00,0.1580
3113.00, 
3114.00,0.1577
3115.00, 
3116.00,0.1576
3117.00, 
3118.00,0.1576
3119.00, 
3120.00,0.1572
3121.00, 
3122.00,0.1570
3123.00, 
3124.00,0.1568
3125.00, 
3126.00,0.1567
3127.00, 
3128.00,0.1564
3129.00, 
3130.00,0.1562
3131.00, 
3132.00,0.1561
3133.00, 
3134.00,0.1560
3135.00, 
3136.00,0.1556
3137.00, 
3138.00,0.1555
3139.00, 
3140.00,0.1554
3141.00, 
3142.00,0.1553
3143.00, 
3144.00,0.1552
3145.00, 
3146.00,0.1549
3147.00, 
3148.00,0.1548
3149.00, 
3150.00,0.1547
3151.00, 
3152.00,0.1542
3153.00, 
3154.00,0.1541
3155.00, 
3156.00,0.1541
3157.00, 
3158.00,0.1540
3159.00, 
3160.00,0.1539
3161.00, 
3162.00,0.1535
3163.00, 
3164.00,0.1535
3165.00, 
3166.00,0.1531
3167.00, 
3168.00,0.1529
3169.00, 
3170.00,0.1526
3171.00, 
3172.00,0.1523
3173.00, 
3174.00,0.1516
3175.00, 
3176.00,0.1510
3177.00, 
3178.00,0.1509
3179.00, 
3180.00,0.1509
3181.00, 
3182.00,0.1507
3183.00, 
3184.00,0.1510
3185.00, 
3186.00,0.1509
3187.00, 
3188.00,0.1508
3189.00, 
3190.00,0.1508
3191.00, 
3192.00,0.1510
3193.00, 
3194.00,0.1507
3195.00, 
3196.00,0.1501
3197.00, 
3198.00,0.1499
3199.00, 
3200.00,0.1502
3201.00, 
3202.00,0.1495
3203.00, 
3204.00,0.1493
3205.00, 
3206.00,0.1490
3207.00, 
3208.00,0.1486
3209.00, 
3210.00,0.1484
3211.00, 
3212.00,0.1486
3213.00, 
3214.00,0.1486
3215.00, 
3216.00,0.1484
3217.00, 
3218.00,0.1478
3219.00, 
3220.00,0.1478
3221.00, 
3222.00,0.1467
3223.00, 
3224.00,0.1472
3225.00, 
3226.00,0.1476
3227.00, 
3228.00,0.1472
3229.00, 
3230.00,0.1465
3231.00, 
3232.00,0.1463
3233.00, 
3234.00,0.1457
3235.00, 
3236.00,0.1455
3237.00, 
3238.00,0.1456
3239.00, 
3240.00,0.1461
3241.00, 
3242.00,0.1452
3243.00, 
3244.00,0.1445
3245.00, 
3246.00,0.1447
3247.00, 
3248.00,0.1451
3249.00, 
3250.00,0.1448
3251.00, 
3252.00,0.1436
3253.00, 
3254.00,0.1442
3255.00, 
3256.00,0.1437
3257.00, 
3258.00,0.1449
3259.00, 
3260.00,0.1452
3261.00, 
3262.00,0.1454
3263.00, 
3264.00,0.1455
3265.00, 
3266.00,0.1451
3267.00, 
3268.00,0.1452
3269.00, 
3270.00,0.1464
3271.00, 
3272.00,0.1457
3273.00, 
3274.00,0.1465
3275.00, 
3276.00,0.1457
3277.00, 
3278.00,0.1449
3279.00, 
3280.00,0.1450
3281.00, 
3282.00,0.1439
3283.00, 
3284.00,0.1449
3285.00, 
3286.00,0.1429
3287.00, 
3288.00,0.1434
3289.00, 
3290.00,0.1432
3291.00, 
3292.00,0.1425
3293.00, 
3294.00,0.1423
3295.00, 
3296.00,0.1431
3297.00, 
3298.00,0.1431
3299.00, 
3300.00,0.1438
