"RawData - P3h-Doped F4tcnq_THF-2mmol"
"Wavelength nm.","Abs."
300.00, 
301.00, 
302.00, 
303.00, 
304.00, 
305.00, 
306.00, 
307.00, 
308.00, 
309.00, 
310.00, 
311.00, 
312.00, 
313.00, 
314.00, 
315.00, 
316.00, 
317.00, 
318.00, 
319.00, 
320.00, 
321.00, 
322.00, 
323.00, 
324.00, 
325.00, 
326.00, 
327.00, 
328.00, 
329.00, 
330.00, 
331.00, 
332.00, 
333.00, 
334.00, 
335.00, 
336.00, 
337.00, 
338.00, 
339.00, 
340.00, 
341.00, 
342.00, 
343.00, 
344.00, 
345.00, 
346.00, 
347.00, 
348.00, 
349.00, 
350.00, 
351.00, 
352.00, 
353.00, 
354.00, 
355.00, 
356.00, 
357.00, 
358.00, 
359.00, 
360.00, 
361.00, 
362.00, 
363.00, 
364.00, 
365.00, 
366.00, 
367.00, 
368.00, 
369.00, 
370.00, 
371.00, 
372.00, 
373.00, 
374.00, 
375.00, 
376.00, 
377.00, 
378.00, 
379.00, 
380.00, 
381.00, 
382.00, 
383.00, 
384.00, 
385.00, 
386.00, 
387.00, 
388.00, 
389.00, 
390.00, 
391.00, 
392.00, 
393.00, 
394.00, 
395.00, 
396.00, 
397.00, 
398.00, 
399.00, 
400.00, 
401.00, 
402.00, 
403.00, 
404.00, 
405.00, 
406.00, 
407.00, 
408.00, 
409.00, 
410.00, 
411.00, 
412.00, 
413.00, 
414.00, 
415.00, 
416.00, 
417.00, 
418.00, 
419.00, 
420.00, 
421.00, 
422.00, 
423.00, 
424.00, 
425.00, 
426.00, 
427.00, 
428.00, 
429.00, 
430.00, 
431.00, 
432.00, 
433.00, 
434.00, 
435.00, 
436.00, 
437.00, 
438.00, 
439.00, 
440.00, 
441.00, 
442.00, 
443.00, 
444.00, 
445.00, 
446.00, 
447.00, 
448.00, 
449.00, 
450.00, 
451.00, 
452.00, 
453.00, 
454.00, 
455.00, 
456.00, 
457.00, 
458.00, 
459.00, 
460.00, 
461.00, 
462.00, 
463.00, 
464.00, 
465.00, 
466.00, 
467.00, 
468.00, 
469.00, 
470.00, 
471.00, 
472.00, 
473.00, 
474.00, 
475.00, 
476.00, 
477.00, 
478.00, 
479.00, 
480.00, 
481.00, 
482.00, 
483.00, 
484.00, 
485.00, 
486.00, 
487.00, 
488.00, 
489.00, 
490.00, 
491.00, 
492.00, 
493.00, 
494.00, 
495.00, 
496.00, 
497.00, 
498.00, 
499.00, 
500.00, 
501.00, 
502.00, 
503.00, 
504.00, 
505.00, 
506.00, 
507.00, 
508.00, 
509.00, 
510.00, 
511.00, 
512.00, 
513.00, 
514.00, 
515.00, 
516.00, 
517.00, 
518.00, 
519.00, 
520.00, 
521.00, 
522.00, 
523.00, 
524.00, 
525.00, 
526.00, 
527.00, 
528.00, 
529.00, 
530.00, 
531.00, 
532.00, 
533.00, 
534.00, 
535.00, 
536.00, 
537.00, 
538.00, 
539.00, 
540.00, 
541.00, 
542.00, 
543.00, 
544.00, 
545.00, 
546.00, 
547.00, 
548.00, 
549.00, 
550.00, 
551.00, 
552.00, 
553.00, 
554.00, 
555.00, 
556.00, 
557.00, 
558.00, 
559.00, 
560.00, 
561.00, 
562.00, 
563.00, 
564.00, 
565.00, 
566.00, 
567.00, 
568.00, 
569.00, 
570.00, 
571.00, 
572.00, 
573.00, 
574.00, 
575.00, 
576.00, 
577.00, 
578.00, 
579.00, 
580.00, 
581.00, 
582.00, 
583.00, 
584.00, 
585.00, 
586.00, 
587.00, 
588.00, 
589.00, 
590.00, 
591.00, 
592.00, 
593.00, 
594.00, 
595.00, 
596.00, 
597.00, 
598.00, 
599.00, 
600.00, 
601.00, 
602.00, 
603.00, 
604.00, 
605.00, 
606.00, 
607.00, 
608.00, 
609.00, 
610.00, 
611.00, 
612.00, 
613.00, 
614.00, 
615.00, 
616.00, 
617.00, 
618.00, 
619.00, 
620.00, 
621.00, 
622.00, 
623.00, 
624.00, 
625.00, 
626.00, 
627.00, 
628.00, 
629.00, 
630.00, 
631.00, 
632.00, 
633.00, 
634.00, 
635.00, 
636.00, 
637.00, 
638.00, 
639.00, 
640.00, 
641.00, 
642.00, 
643.00, 
644.00, 
645.00, 
646.00, 
647.00, 
648.00, 
649.00, 
650.00, 
651.00, 
652.00, 
653.00, 
654.00, 
655.00, 
656.00, 
657.00, 
658.00, 
659.00, 
660.00, 
661.00, 
662.00, 
663.00, 
664.00, 
665.00, 
666.00, 
667.00, 
668.00, 
669.00, 
670.00, 
671.00, 
672.00, 
673.00, 
674.00, 
675.00, 
676.00, 
677.00, 
678.00, 
679.00, 
680.00, 
681.00, 
682.00, 
683.00, 
684.00, 
685.00, 
686.00, 
687.00, 
688.00, 
689.00, 
690.00, 
691.00, 
692.00, 
693.00, 
694.00, 
695.00, 
696.00, 
697.00, 
698.00, 
699.00, 
700.00, 
701.00, 
702.00, 
703.00, 
704.00, 
705.00, 
706.00, 
707.00, 
708.00, 
709.00, 
710.00, 
711.00, 
712.00, 
713.00, 
714.00, 
715.00, 
716.00, 
717.00, 
718.00, 
719.00, 
720.00, 
721.00, 
722.00, 
723.00, 
724.00, 
725.00, 
726.00, 
727.00, 
728.00, 
729.00, 
730.00, 
731.00, 
732.00, 
733.00, 
734.00, 
735.00, 
736.00, 
737.00, 
738.00, 
739.00, 
740.00, 
741.00, 
742.00, 
743.00, 
744.00, 
745.00, 
746.00, 
747.00, 
748.00, 
749.00, 
750.00, 
751.00, 
752.00, 
753.00, 
754.00, 
755.00, 
756.00, 
757.00, 
758.00, 
759.00, 
760.00, 
761.00, 
762.00, 
763.00, 
764.00, 
765.00, 
766.00, 
767.00, 
768.00, 
769.00, 
770.00, 
771.00, 
772.00, 
773.00, 
774.00, 
775.00, 
776.00, 
777.00, 
778.00, 
779.00, 
780.00, 
781.00, 
782.00, 
783.00, 
784.00, 
785.00, 
786.00, 
787.00, 
788.00, 
789.00, 
790.00, 
791.00, 
792.00, 
793.00, 
794.00, 
795.00, 
796.00, 
797.00, 
798.00, 
799.00, 
800.00, 
801.00, 
802.00, 
803.00, 
804.00, 
805.00, 
806.00, 
807.00, 
808.00, 
809.00, 
810.00, 
811.00, 
812.00, 
813.00, 
814.00, 
815.00, 
816.00, 
817.00, 
818.00, 
819.00, 
820.00, 
821.00, 
822.00, 
823.00, 
824.00, 
825.00, 
826.00, 
827.00, 
828.00, 
829.00, 
830.00, 
831.00, 
832.00, 
833.00, 
834.00, 
835.00, 
836.00, 
837.00, 
838.00, 
839.00, 
840.00, 
841.00, 
842.00, 
843.00, 
844.00, 
845.00, 
846.00, 
847.00, 
848.00, 
849.00, 
850.00, 
851.00, 
852.00, 
853.00, 
854.00, 
855.00, 
856.00, 
857.00, 
858.00, 
859.00, 
860.00, 
861.00, 
862.00, 
863.00, 
864.00, 
865.00, 
866.00, 
867.00, 
868.00, 
869.00, 
870.00, 
871.00, 
872.00, 
873.00, 
874.00, 
875.00, 
876.00, 
877.00, 
878.00, 
879.00, 
880.00, 
881.00, 
882.00, 
883.00, 
884.00, 
885.00, 
886.00, 
887.00, 
888.00, 
889.00, 
890.00, 
891.00, 
892.00, 
893.00, 
894.00, 
895.00, 
896.00, 
897.00, 
898.00, 
899.00, 
900.00, 
901.00, 
902.00, 
903.00, 
904.00, 
905.00, 
906.00, 
907.00, 
908.00, 
909.00, 
910.00, 
911.00, 
912.00, 
913.00, 
914.00, 
915.00, 
916.00, 
917.00, 
918.00, 
919.00, 
920.00, 
921.00, 
922.00, 
923.00, 
924.00, 
925.00, 
926.00, 
927.00, 
928.00, 
929.00, 
930.00, 
931.00, 
932.00, 
933.00, 
934.00, 
935.00, 
936.00, 
937.00, 
938.00, 
939.00, 
940.00, 
941.00, 
942.00, 
943.00, 
944.00, 
945.00, 
946.00, 
947.00, 
948.00, 
949.00, 
950.00, 
951.00, 
952.00, 
953.00, 
954.00, 
955.00, 
956.00, 
957.00, 
958.00, 
959.00, 
960.00, 
961.00, 
962.00, 
963.00, 
964.00, 
965.00, 
966.00, 
967.00, 
968.00, 
969.00, 
970.00, 
971.00, 
972.00, 
973.00, 
974.00, 
975.00, 
976.00, 
977.00, 
978.00, 
979.00, 
980.00, 
981.00, 
982.00, 
983.00, 
984.00, 
985.00, 
986.00, 
987.00, 
988.00, 
989.00, 
990.00, 
991.00, 
992.00, 
993.00, 
994.00, 
995.00, 
996.00, 
997.00, 
998.00, 
999.00, 
1000.00,0.1288
1001.00, 
1002.00,0.1274
1003.00, 
1004.00,0.1254
1005.00, 
1006.00,0.1235
1007.00, 
1008.00,0.1216
1009.00, 
1010.00,0.1197
1011.00, 
1012.00,0.1178
1013.00, 
1014.00,0.1160
1015.00, 
1016.00,0.1141
1017.00, 
1018.00,0.1123
1019.00, 
1020.00,0.1105
1021.00, 
1022.00,0.1087
1023.00, 
1024.00,0.1071
1025.00, 
1026.00,0.1054
1027.00, 
1028.00,0.1039
1029.00, 
1030.00,0.1022
1031.00, 
1032.00,0.1006
1033.00, 
1034.00,0.0991
1035.00, 
1036.00,0.0976
1037.00, 
1038.00,0.0962
1039.00, 
1040.00,0.0946
1041.00, 
1042.00,0.0932
1043.00, 
1044.00,0.0918
1045.00, 
1046.00,0.0906
1047.00, 
1048.00,0.0893
1049.00, 
1050.00,0.0880
1051.00, 
1052.00,0.0867
1053.00, 
1054.00,0.0854
1055.00, 
1056.00,0.0842
1057.00, 
1058.00,0.0830
1059.00, 
1060.00,0.0820
1061.00, 
1062.00,0.0809
1063.00, 
1064.00,0.0800
1065.00, 
1066.00,0.0791
1067.00, 
1068.00,0.0782
1069.00, 
1070.00,0.0773
1071.00, 
1072.00,0.0764
1073.00, 
1074.00,0.0756
1075.00, 
1076.00,0.0748
1077.00, 
1078.00,0.0740
1079.00, 
1080.00,0.0731
1081.00, 
1082.00,0.0726
1083.00, 
1084.00,0.0719
1085.00, 
1086.00,0.0714
1087.00, 
1088.00,0.0707
1089.00, 
1090.00,0.0701
1091.00, 
1092.00,0.0696
1093.00, 
1094.00,0.0691
1095.00, 
1096.00,0.0687
1097.00, 
1098.00,0.0682
1099.00, 
1100.00,0.0677
1101.00, 
1102.00,0.0672
1103.00, 
1104.00,0.0668
1105.00, 
1106.00,0.0664
1107.00, 
1108.00,0.0660
1109.00, 
1110.00,0.0656
1111.00, 
1112.00,0.0652
1113.00, 
1114.00,0.0649
1115.00, 
1116.00,0.0646
1117.00, 
1118.00,0.0645
1119.00, 
1120.00,0.0643
1121.00, 
1122.00,0.0642
1123.00, 
1124.00,0.0638
1125.00, 
1126.00,0.0638
1127.00, 
1128.00,0.0635
1129.00, 
1130.00,0.0632
1131.00, 
1132.00,0.0627
1133.00, 
1134.00,0.0625
1135.00, 
1136.00,0.0623
1137.00, 
1138.00,0.0623
1139.00, 
1140.00,0.0620
1141.00, 
1142.00,0.0619
1143.00, 
1144.00,0.0617
1145.00, 
1146.00,0.0617
1147.00, 
1148.00,0.0616
1149.00, 
1150.00,0.0617
1151.00, 
1152.00,0.0616
1153.00, 
1154.00,0.0617
1155.00, 
1156.00,0.0617
1157.00, 
1158.00,0.0617
1159.00, 
1160.00,0.0617
1161.00, 
1162.00,0.0615
1163.00, 
1164.00,0.0615
1165.00, 
1166.00,0.0616
1167.00, 
1168.00,0.0615
1169.00, 
1170.00,0.0616
1171.00, 
1172.00,0.0615
1173.00, 
1174.00,0.0616
1175.00, 
1176.00,0.0616
1177.00, 
1178.00,0.0617
1179.00, 
1180.00,0.0618
1181.00, 
1182.00,0.0620
1183.00, 
1184.00,0.0619
1185.00, 
1186.00,0.0619
1187.00, 
1188.00,0.0619
1189.00, 
1190.00,0.0620
1191.00, 
1192.00,0.0622
1193.00, 
1194.00,0.0624
1195.00, 
1196.00,0.0625
1197.00, 
1198.00,0.0627
1199.00, 
1200.00,0.0628
1201.00, 
1202.00,0.0630
1203.00, 
1204.00,0.0632
1205.00, 
1206.00,0.0633
1207.00, 
1208.00,0.0634
1209.00, 
1210.00,0.0635
1211.00, 
1212.00,0.0636
1213.00, 
1214.00,0.0638
1215.00, 
1216.00,0.0641
1217.00, 
1218.00,0.0643
1219.00, 
1220.00,0.0643
1221.00, 
1222.00,0.0643
1223.00, 
1224.00,0.0645
1225.00, 
1226.00,0.0649
1227.00, 
1228.00,0.0652
1229.00, 
1230.00,0.0654
1231.00, 
1232.00,0.0657
1233.00, 
1234.00,0.0660
1235.00, 
1236.00,0.0661
1237.00, 
1238.00,0.0664
1239.00, 
1240.00,0.0666
1241.00, 
1242.00,0.0669
1243.00, 
1244.00,0.0671
1245.00, 
1246.00,0.0673
1247.00, 
1248.00,0.0676
1249.00, 
1250.00,0.0678
1251.00, 
1252.00,0.0681
1253.00, 
1254.00,0.0684
1255.00, 
1256.00,0.0686
1257.00, 
1258.00,0.0690
1259.00, 
1260.00,0.0693
1261.00, 
1262.00,0.0695
1263.00, 
1264.00,0.0697
1265.00, 
1266.00,0.0700
1267.00, 
1268.00,0.0703
1269.00, 
1270.00,0.0707
1271.00, 
1272.00,0.0711
1273.00, 
1274.00,0.0714
1275.00, 
1276.00,0.0717
1277.00, 
1278.00,0.0721
1279.00, 
1280.00,0.0727
1281.00, 
1282.00,0.0728
1283.00, 
1284.00,0.0730
1285.00, 
1286.00,0.0732
1287.00, 
1288.00,0.0737
1289.00, 
1290.00,0.0741
1291.00, 
1292.00,0.0745
1293.00, 
1294.00,0.0749
1295.00, 
1296.00,0.0755
1297.00, 
1298.00,0.0761
1299.00, 
1300.00,0.0767
1301.00, 
1302.00,0.0770
1303.00, 
1304.00,0.0772
1305.00, 
1306.00,0.0774
1307.00, 
1308.00,0.0777
1309.00, 
1310.00,0.0779
1311.00, 
1312.00,0.0784
1313.00, 
1314.00,0.0788
1315.00, 
1316.00,0.0795
1317.00, 
1318.00,0.0801
1319.00, 
1320.00,0.0809
1321.00, 
1322.00,0.0815
1323.00, 
1324.00,0.0821
1325.00, 
1326.00,0.0825
1327.00, 
1328.00,0.0830
1329.00, 
1330.00,0.0834
1331.00, 
1332.00,0.0840
1333.00, 
1334.00,0.0846
1335.00, 
1336.00,0.0854
1337.00, 
1338.00,0.0862
1339.00, 
1340.00,0.0865
1341.00, 
1342.00,0.0870
1343.00, 
1344.00,0.0874
1345.00, 
1346.00,0.0883
1347.00, 
1348.00,0.0887
1349.00, 
1350.00,0.0891
1351.00, 
1352.00,0.0896
1353.00, 
1354.00,0.0905
1355.00, 
1356.00,0.0913
1357.00, 
1358.00,0.0919
1359.00, 
1360.00,0.0926
1361.00, 
1362.00,0.0931
1363.00, 
1364.00,0.0940
1365.00, 
1366.00,0.0946
1367.00, 
1368.00,0.0953
1369.00, 
1370.00,0.0959
1371.00, 
1372.00,0.0967
1373.00, 
1374.00,0.0974
1375.00, 
1376.00,0.0981
1377.00, 
1378.00,0.0986
1379.00, 
1380.00,0.0994
1381.00, 
1382.00,0.1001
1383.00, 
1384.00,0.1010
1385.00, 
1386.00,0.1017
1387.00, 
1388.00,0.1025
1389.00, 
1390.00,0.1032
1391.00, 
1392.00,0.1039
1393.00, 
1394.00,0.1044
1395.00, 
1396.00,0.1050
1397.00, 
1398.00,0.1056
1399.00, 
1400.00,0.1064
1401.00, 
1402.00,0.1070
1403.00, 
1404.00,0.1078
1405.00, 
1406.00,0.1084
1407.00, 
1408.00,0.1091
1409.00, 
1410.00,0.1098
1411.00, 
1412.00,0.1106
1413.00, 
1414.00,0.1115
1415.00, 
1416.00,0.1125
1417.00, 
1418.00,0.1135
1419.00, 
1420.00,0.1145
1421.00, 
1422.00,0.1153
1423.00, 
1424.00,0.1161
1425.00, 
1426.00,0.1170
1427.00, 
1428.00,0.1180
1429.00, 
1430.00,0.1190
1431.00, 
1432.00,0.1198
1433.00, 
1434.00,0.1207
1435.00, 
1436.00,0.1214
1437.00, 
1438.00,0.1223
1439.00, 
1440.00,0.1231
1441.00, 
1442.00,0.1242
1443.00, 
1444.00,0.1251
1445.00, 
1446.00,0.1261
1447.00, 
1448.00,0.1270
1449.00, 
1450.00,0.1281
1451.00, 
1452.00,0.1292
1453.00, 
1454.00,0.1303
1455.00, 
1456.00,0.1313
1457.00, 
1458.00,0.1323
1459.00, 
1460.00,0.1334
1461.00, 
1462.00,0.1344
1463.00, 
1464.00,0.1354
1465.00, 
1466.00,0.1366
1467.00, 
1468.00,0.1378
1469.00, 
1470.00,0.1390
1471.00, 
1472.00,0.1400
1473.00, 
1474.00,0.1412
1475.00, 
1476.00,0.1422
1477.00, 
1478.00,0.1432
1479.00, 
1480.00,0.1442
1481.00, 
1482.00,0.1453
1483.00, 
1484.00,0.1464
1485.00, 
1486.00,0.1477
1487.00, 
1488.00,0.1488
1489.00, 
1490.00,0.1503
1491.00, 
1492.00,0.1521
1493.00, 
1494.00,0.1533
1495.00, 
1496.00,0.1543
1497.00, 
1498.00,0.1549
1499.00, 
1500.00,0.1561
1501.00, 
1502.00,0.1572
1503.00, 
1504.00,0.1583
1505.00, 
1506.00,0.1596
1507.00, 
1508.00,0.1610
1509.00, 
1510.00,0.1624
1511.00, 
1512.00,0.1638
1513.00, 
1514.00,0.1648
1515.00, 
1516.00,0.1661
1517.00, 
1518.00,0.1672
1519.00, 
1520.00,0.1687
1521.00, 
1522.00,0.1699
1523.00, 
1524.00,0.1713
1525.00, 
1526.00,0.1726
1527.00, 
1528.00,0.1740
1529.00, 
1530.00,0.1755
1531.00, 
1532.00,0.1767
1533.00, 
1534.00,0.1779
1535.00, 
1536.00,0.1792
1537.00, 
1538.00,0.1807
1539.00, 
1540.00,0.1823
1541.00, 
1542.00,0.1838
1543.00, 
1544.00,0.1851
1545.00, 
1546.00,0.1863
1547.00, 
1548.00,0.1875
1549.00, 
1550.00,0.1887
1551.00, 
1552.00,0.1900
1553.00, 
1554.00,0.1916
1555.00, 
1556.00,0.1932
1557.00, 
1558.00,0.1946
1559.00, 
1560.00,0.1960
1561.00, 
1562.00,0.1973
1563.00, 
1564.00,0.1988
1565.00, 
1566.00,0.2000
1567.00, 
1568.00,0.2015
1569.00, 
1570.00,0.2030
1571.00, 
1572.00,0.2046
1573.00, 
1574.00,0.2061
1575.00, 
1576.00,0.2076
1577.00, 
1578.00,0.2089
1579.00, 
1580.00,0.2101
1581.00, 
1582.00,0.2115
1583.00, 
1584.00,0.2133
1585.00, 
1586.00,0.2149
1587.00, 
1588.00,0.2164
1589.00, 
1590.00,0.2177
1591.00, 
1592.00,0.2191
1593.00, 
1594.00,0.2205
1595.00, 
1596.00,0.2221
1597.00, 
1598.00,0.2234
1599.00, 
1600.00,0.2251
1601.00, 
1602.00,0.2265
1603.00, 
1604.00,0.2281
1605.00, 
1606.00,0.2294
1607.00, 
1608.00,0.2309
1609.00, 
1610.00,0.2322
1611.00, 
1612.00,0.2339
1613.00, 
1614.00,0.2352
1615.00, 
1616.00,0.2368
1617.00, 
1618.00,0.2382
1619.00, 
1620.00,0.2397
1621.00, 
1622.00,0.2414
1623.00, 
1624.00,0.2430
1625.00, 
1626.00,0.2446
1627.00, 
1628.00,0.2459
1629.00, 
1630.00,0.2474
1631.00, 
1632.00,0.2489
1633.00, 
1634.00,0.2504
1635.00, 
1636.00,0.2518
1637.00, 
1638.00,0.2533
1639.00, 
1640.00,0.2547
1641.00, 
1642.00,0.2561
1643.00, 
1644.00,0.2575
1645.00, 
1646.00,0.2590
1647.00, 
1648.00,0.2604
1649.00, 
1650.00,0.2630
1651.00, 
1652.00,0.2657
1653.00, 
1654.00,0.2685
1655.00, 
1656.00,0.2699
1657.00, 
1658.00,0.2713
1659.00, 
1660.00,0.2726
1661.00, 
1662.00,0.2740
1663.00, 
1664.00,0.2753
1665.00, 
1666.00,0.2766
1667.00, 
1668.00,0.2780
1669.00, 
1670.00,0.2794
1671.00, 
1672.00,0.2808
1673.00, 
1674.00,0.2821
1675.00, 
1676.00,0.2834
1677.00, 
1678.00,0.2846
1679.00, 
1680.00,0.2858
1681.00, 
1682.00,0.2870
1683.00, 
1684.00,0.2882
1685.00, 
1686.00,0.2895
1687.00, 
1688.00,0.2907
1689.00, 
1690.00,0.2921
1691.00, 
1692.00,0.2933
1693.00, 
1694.00,0.2946
1695.00, 
1696.00,0.2959
1697.00, 
1698.00,0.2970
1699.00, 
1700.00,0.2982
1701.00, 
1702.00,0.2993
1703.00, 
1704.00,0.3005
1705.00, 
1706.00,0.3018
1707.00, 
1708.00,0.3032
1709.00, 
1710.00,0.3045
1711.00, 
1712.00,0.3056
1713.00, 
1714.00,0.3067
1715.00, 
1716.00,0.3077
1717.00, 
1718.00,0.3089
1719.00, 
1720.00,0.3100
1721.00, 
1722.00,0.3112
1723.00, 
1724.00,0.3124
1725.00, 
1726.00,0.3136
1727.00, 
1728.00,0.3149
1729.00, 
1730.00,0.3161
1731.00, 
1732.00,0.3174
1733.00, 
1734.00,0.3186
1735.00, 
1736.00,0.3197
1737.00, 
1738.00,0.3208
1739.00, 
1740.00,0.3220
1741.00, 
1742.00,0.3232
1743.00, 
1744.00,0.3245
1745.00, 
1746.00,0.3257
1747.00, 
1748.00,0.3267
1749.00, 
1750.00,0.3278
1751.00, 
1752.00,0.3287
1753.00, 
1754.00,0.3299
1755.00, 
1756.00,0.3309
1757.00, 
1758.00,0.3321
1759.00, 
1760.00,0.3332
1761.00, 
1762.00,0.3343
1763.00, 
1764.00,0.3354
1765.00, 
1766.00,0.3365
1767.00, 
1768.00,0.3375
1769.00, 
1770.00,0.3387
1771.00, 
1772.00,0.3396
1773.00, 
1774.00,0.3407
1775.00, 
1776.00,0.3417
1777.00, 
1778.00,0.3428
1779.00, 
1780.00,0.3438
1781.00, 
1782.00,0.3449
1783.00, 
1784.00,0.3460
1785.00, 
1786.00,0.3470
1787.00, 
1788.00,0.3479
1789.00, 
1790.00,0.3488
1791.00, 
1792.00,0.3497
1793.00, 
1794.00,0.3505
1795.00, 
1796.00,0.3515
1797.00, 
1798.00,0.3525
1799.00, 
1800.00,0.3536
1801.00, 
1802.00,0.3546
1803.00, 
1804.00,0.3558
1805.00, 
1806.00,0.3569
1807.00, 
1808.00,0.3580
1809.00, 
1810.00,0.3590
1811.00, 
1812.00,0.3600
1813.00, 
1814.00,0.3608
1815.00, 
1816.00,0.3615
1817.00, 
1818.00,0.3624
1819.00, 
1820.00,0.3636
1821.00, 
1822.00,0.3650
1823.00, 
1824.00,0.3664
1825.00, 
1826.00,0.3677
1827.00, 
1828.00,0.3687
1829.00, 
1830.00,0.3693
1831.00, 
1832.00,0.3696
1833.00, 
1834.00,0.3698
1835.00, 
1836.00,0.3704
1837.00, 
1838.00,0.3714
1839.00, 
1840.00,0.3729
1841.00, 
1842.00,0.3742
1843.00, 
1844.00,0.3754
1845.00, 
1846.00,0.3766
1847.00, 
1848.00,0.3778
1849.00, 
1850.00,0.3788
1851.00, 
1852.00,0.3794
1853.00, 
1854.00,0.3798
1855.00, 
1856.00,0.3801
1857.00, 
1858.00,0.3802
1859.00, 
1860.00,0.3805
1861.00, 
1862.00,0.3810
1863.00, 
1864.00,0.3822
1865.00, 
1866.00,0.3830
1867.00, 
1868.00,0.3838
1869.00, 
1870.00,0.3844
1871.00, 
1872.00,0.3851
1873.00, 
1874.00,0.3856
1875.00, 
1876.00,0.3864
1877.00, 
1878.00,0.3869
1879.00, 
1880.00,0.3875
1881.00, 
1882.00,0.3878
1883.00, 
1884.00,0.3884
1885.00, 
1886.00,0.3889
1887.00, 
1888.00,0.3895
1889.00, 
1890.00,0.3902
1891.00, 
1892.00,0.3909
1893.00, 
1894.00,0.3915
1895.00, 
1896.00,0.3919
1897.00, 
1898.00,0.3925
1899.00, 
1900.00,0.3931
1901.00, 
1902.00,0.3939
1903.00, 
1904.00,0.3946
1905.00, 
1906.00,0.3952
1907.00, 
1908.00,0.3955
1909.00, 
1910.00,0.3957
1911.00, 
1912.00,0.3959
1913.00, 
1914.00,0.3960
1915.00, 
1916.00,0.3963
1917.00, 
1918.00,0.3965
1919.00, 
1920.00,0.3970
1921.00, 
1922.00,0.3974
1923.00, 
1924.00,0.3980
1925.00, 
1926.00,0.3983
1927.00, 
1928.00,0.3986
1929.00, 
1930.00,0.3990
1931.00, 
1932.00,0.3995
1933.00, 
1934.00,0.4000
1935.00, 
1936.00,0.4003
1937.00, 
1938.00,0.4008
1939.00, 
1940.00,0.4010
1941.00, 
1942.00,0.4013
1943.00, 
1944.00,0.4017
1945.00, 
1946.00,0.4022
1947.00, 
1948.00,0.4025
1949.00, 
1950.00,0.4027
1951.00, 
1952.00,0.4030
1953.00, 
1954.00,0.4033
1955.00, 
1956.00,0.4035
1957.00, 
1958.00,0.4036
1959.00, 
1960.00,0.4039
1961.00, 
1962.00,0.4041
1963.00, 
1964.00,0.4044
1965.00, 
1966.00,0.4046
1967.00, 
1968.00,0.4047
1969.00, 
1970.00,0.4050
1971.00, 
1972.00,0.4055
1973.00, 
1974.00,0.4058
1975.00, 
1976.00,0.4060
1977.00, 
1978.00,0.4062
1979.00, 
1980.00,0.4067
1981.00, 
1982.00,0.4071
1983.00, 
1984.00,0.4073
1985.00, 
1986.00,0.4074
1987.00, 
1988.00,0.4075
1989.00, 
1990.00,0.4075
1991.00, 
1992.00,0.4076
1993.00, 
1994.00,0.4077
1995.00, 
1996.00,0.4081
1997.00, 
1998.00,0.4081
1999.00, 
2000.00,0.4082
2001.00, 
2002.00,0.4083
2003.00, 
2004.00,0.4087
2005.00, 
2006.00,0.4088
2007.00, 
2008.00,0.4090
2009.00, 
2010.00,0.4092
2011.00, 
2012.00,0.4095
2013.00, 
2014.00,0.4099
2015.00, 
2016.00,0.4101
2017.00, 
2018.00,0.4102
2019.00, 
2020.00,0.4101
2021.00, 
2022.00,0.4101
2023.00, 
2024.00,0.4102
2025.00, 
2026.00,0.4104
2027.00, 
2028.00,0.4106
2029.00, 
2030.00,0.4108
2031.00, 
2032.00,0.4110
2033.00, 
2034.00,0.4115
2035.00, 
2036.00,0.4118
2037.00, 
2038.00,0.4118
2039.00, 
2040.00,0.4118
2041.00, 
2042.00,0.4120
2043.00, 
2044.00,0.4121
2045.00, 
2046.00,0.4122
2047.00, 
2048.00,0.4122
2049.00, 
2050.00,0.4128
2051.00, 
2052.00,0.4134
2053.00, 
2054.00,0.4138
2055.00, 
2056.00,0.4143
2057.00, 
2058.00,0.4146
2059.00, 
2060.00,0.4150
2061.00, 
2062.00,0.4151
2063.00, 
2064.00,0.4151
2065.00, 
2066.00,0.4151
2067.00, 
2068.00,0.4153
2069.00, 
2070.00,0.4154
2071.00, 
2072.00,0.4156
2073.00, 
2074.00,0.4158
2075.00, 
2076.00,0.4161
2077.00, 
2078.00,0.4164
2079.00, 
2080.00,0.4164
2081.00, 
2082.00,0.4166
2083.00, 
2084.00,0.4167
2085.00, 
2086.00,0.4172
2087.00, 
2088.00,0.4173
2089.00, 
2090.00,0.4173
2091.00, 
2092.00,0.4171
2093.00, 
2094.00,0.4170
2095.00, 
2096.00,0.4169
2097.00, 
2098.00,0.4169
2099.00, 
2100.00,0.4170
2101.00, 
2102.00,0.4172
2103.00, 
2104.00,0.4171
2105.00, 
2106.00,0.4172
2107.00, 
2108.00,0.4171
2109.00, 
2110.00,0.4174
2111.00, 
2112.00,0.4174
2113.00, 
2114.00,0.4174
2115.00, 
2116.00,0.4171
2117.00, 
2118.00,0.4169
2119.00, 
2120.00,0.4170
2121.00, 
2122.00,0.4170
2123.00, 
2124.00,0.4167
2125.00, 
2126.00,0.4164
2127.00, 
2128.00,0.4163
2129.00, 
2130.00,0.4162
2131.00, 
2132.00,0.4162
2133.00, 
2134.00,0.4160
2135.00, 
2136.00,0.4158
2137.00, 
2138.00,0.4157
2139.00, 
2140.00,0.4158
2141.00, 
2142.00,0.4159
2143.00, 
2144.00,0.4156
2145.00, 
2146.00,0.4153
2147.00, 
2148.00,0.4151
2149.00, 
2150.00,0.4149
2151.00, 
2152.00,0.4149
2153.00, 
2154.00,0.4146
2155.00, 
2156.00,0.4145
2157.00, 
2158.00,0.4143
2159.00, 
2160.00,0.4144
2161.00, 
2162.00,0.4143
2163.00, 
2164.00,0.4143
2165.00, 
2166.00,0.4143
2167.00, 
2168.00,0.4142
2169.00, 
2170.00,0.4141
2171.00, 
2172.00,0.4139
2173.00, 
2174.00,0.4137
2175.00, 
2176.00,0.4138
2177.00, 
2178.00,0.4138
2179.00, 
2180.00,0.4137
2181.00, 
2182.00,0.4137
2183.00, 
2184.00,0.4136
2185.00, 
2186.00,0.4134
2187.00, 
2188.00,0.4133
2189.00, 
2190.00,0.4131
2191.00, 
2192.00,0.4137
2193.00, 
2194.00,0.4137
2195.00, 
2196.00,0.4140
2197.00, 
2198.00,0.4140
2199.00, 
2200.00,0.4143
2201.00, 
2202.00,0.4146
2203.00, 
2204.00,0.4146
2205.00, 
2206.00,0.4147
2207.00, 
2208.00,0.4147
2209.00, 
2210.00,0.4148
2211.00, 
2212.00,0.4146
2213.00, 
2214.00,0.4143
2215.00, 
2216.00,0.4139
2217.00, 
2218.00,0.4137
2219.00, 
2220.00,0.4134
2221.00, 
2222.00,0.4131
2223.00, 
2224.00,0.4130
2225.00, 
2226.00,0.4129
2227.00, 
2228.00,0.4127
2229.00, 
2230.00,0.4125
2231.00, 
2232.00,0.4123
2233.00, 
2234.00,0.4121
2235.00, 
2236.00,0.4116
2237.00, 
2238.00,0.4113
2239.00, 
2240.00,0.4110
2241.00, 
2242.00,0.4108
2243.00, 
2244.00,0.4104
2245.00, 
2246.00,0.4102
2247.00, 
2248.00,0.4100
2249.00, 
2250.00,0.4099
2251.00, 
2252.00,0.4098
2253.00, 
2254.00,0.4095
2255.00, 
2256.00,0.4088
2257.00, 
2258.00,0.4085
2259.00, 
2260.00,0.4086
2261.00, 
2262.00,0.4089
2263.00, 
2264.00,0.4090
2265.00, 
2266.00,0.4086
2267.00, 
2268.00,0.4081
2269.00, 
2270.00,0.4077
2271.00, 
2272.00,0.4075
2273.00, 
2274.00,0.4074
2275.00, 
2276.00,0.4069
2277.00, 
2278.00,0.4066
2279.00, 
2280.00,0.4062
2281.00, 
2282.00,0.4059
2283.00, 
2284.00,0.4057
2285.00, 
2286.00,0.4054
2287.00, 
2288.00,0.4051
2289.00, 
2290.00,0.4048
2291.00, 
2292.00,0.4045
2293.00, 
2294.00,0.4043
2295.00, 
2296.00,0.4039
2297.00, 
2298.00,0.4036
2299.00, 
2300.00,0.4034
2301.00, 
2302.00,0.4033
2303.00, 
2304.00,0.4029
2305.00, 
2306.00,0.4025
2307.00, 
2308.00,0.4021
2309.00, 
2310.00,0.4018
2311.00, 
2312.00,0.4014
2313.00, 
2314.00,0.4013
2315.00, 
2316.00,0.4011
2317.00, 
2318.00,0.4008
2319.00, 
2320.00,0.4007
2321.00, 
2322.00,0.4003
2323.00, 
2324.00,0.3999
2325.00, 
2326.00,0.3993
2327.00, 
2328.00,0.3992
2329.00, 
2330.00,0.3991
2331.00, 
2332.00,0.3990
2333.00, 
2334.00,0.3987
2335.00, 
2336.00,0.3982
2337.00, 
2338.00,0.3978
2339.00, 
2340.00,0.3974
2341.00, 
2342.00,0.3973
2343.00, 
2344.00,0.3970
2345.00, 
2346.00,0.3966
2347.00, 
2348.00,0.3962
2349.00, 
2350.00,0.3961
2351.00, 
2352.00,0.3958
2353.00, 
2354.00,0.3956
2355.00, 
2356.00,0.3951
2357.00, 
2358.00,0.3947
2359.00, 
2360.00,0.3942
2361.00, 
2362.00,0.3939
2363.00, 
2364.00,0.3939
2365.00, 
2366.00,0.3938
2367.00, 
2368.00,0.3933
2369.00, 
2370.00,0.3929
2371.00, 
2372.00,0.3927
2373.00, 
2374.00,0.3924
2375.00, 
2376.00,0.3921
2377.00, 
2378.00,0.3916
2379.00, 
2380.00,0.3917
2381.00, 
2382.00,0.3916
2383.00, 
2384.00,0.3912
2385.00, 
2386.00,0.3907
2387.00, 
2388.00,0.3904
2389.00, 
2390.00,0.3905
2391.00, 
2392.00,0.3901
2393.00, 
2394.00,0.3898
2395.00, 
2396.00,0.3894
2397.00, 
2398.00,0.3892
2399.00, 
2400.00,0.3891
2401.00, 
2402.00,0.3885
2403.00, 
2404.00,0.3881
2405.00, 
2406.00,0.3878
2407.00, 
2408.00,0.3875
2409.00, 
2410.00,0.3875
2411.00, 
2412.00,0.3871
2413.00, 
2414.00,0.3870
2415.00, 
2416.00,0.3870
2417.00, 
2418.00,0.3872
2419.00, 
2420.00,0.3868
2421.00, 
2422.00,0.3862
2423.00, 
2424.00,0.3859
2425.00, 
2426.00,0.3857
2427.00, 
2428.00,0.3854
2429.00, 
2430.00,0.3851
2431.00, 
2432.00,0.3849
2433.00, 
2434.00,0.3845
2435.00, 
2436.00,0.3842
2437.00, 
2438.00,0.3839
2439.00, 
2440.00,0.3840
2441.00, 
2442.00,0.3833
2443.00, 
2444.00,0.3831
2445.00, 
2446.00,0.3830
2447.00, 
2448.00,0.3832
2449.00, 
2450.00,0.3828
2451.00, 
2452.00,0.3825
2453.00, 
2454.00,0.3824
2455.00, 
2456.00,0.3822
2457.00, 
2458.00,0.3818
2459.00, 
2460.00,0.3816
2461.00, 
2462.00,0.3815
2463.00, 
2464.00,0.3816
2465.00, 
2466.00,0.3813
2467.00, 
2468.00,0.3808
2469.00, 
2470.00,0.3802
2471.00, 
2472.00,0.3797
2473.00, 
2474.00,0.3796
2475.00, 
2476.00,0.3793
2477.00, 
2478.00,0.3796
2479.00, 
2480.00,0.3793
2481.00, 
2482.00,0.3789
2483.00, 
2484.00,0.3783
2485.00, 
2486.00,0.3783
2487.00, 
2488.00,0.3784
2489.00, 
2490.00,0.3785
2491.00, 
2492.00,0.3778
2493.00, 
2494.00,0.3774
2495.00, 
2496.00,0.3765
2497.00, 
2498.00,0.3768
2499.00, 
2500.00,0.3775
2501.00, 
2502.00,0.3784
2503.00, 
2504.00,0.3789
2505.00, 
2506.00,0.3788
2507.00, 
2508.00,0.3790
2509.00, 
2510.00,0.3792
2511.00, 
2512.00,0.3791
2513.00, 
2514.00,0.3791
2515.00, 
2516.00,0.3787
2517.00, 
2518.00,0.3786
2519.00, 
2520.00,0.3782
2521.00, 
2522.00,0.3777
2523.00, 
2524.00,0.3772
2525.00, 
2526.00,0.3761
2527.00, 
2528.00,0.3754
2529.00, 
2530.00,0.3749
2531.00, 
2532.00,0.3750
2533.00, 
2534.00,0.3753
2535.00, 
2536.00,0.3754
2537.00, 
2538.00,0.3758
2539.00, 
2540.00,0.3756
2541.00, 
2542.00,0.3753
2543.00, 
2544.00,0.3742
2545.00, 
2546.00,0.3731
2547.00, 
2548.00,0.3719
2549.00, 
2550.00,0.3712
2551.00, 
2552.00,0.3705
2553.00, 
2554.00,0.3707
2555.00, 
2556.00,0.3710
2557.00, 
2558.00,0.3720
2559.00, 
2560.00,0.3728
2561.00, 
2562.00,0.3743
2563.00, 
2564.00,0.3750
2565.00, 
2566.00,0.3751
2567.00, 
2568.00,0.3739
2569.00, 
2570.00,0.3720
2571.00, 
2572.00,0.3704
2573.00, 
2574.00,0.3698
2575.00, 
2576.00,0.3694
2577.00, 
2578.00,0.3689
2579.00, 
2580.00,0.3689
2581.00, 
2582.00,0.3697
2583.00, 
2584.00,0.3707
2585.00, 
2586.00,0.3710
2587.00, 
2588.00,0.3712
2589.00, 
2590.00,0.3719
2591.00, 
2592.00,0.3714
2593.00, 
2594.00,0.3710
2595.00, 
2596.00,0.3697
2597.00, 
2598.00,0.3698
2599.00, 
2600.00,0.3698
2601.00, 
2602.00,0.3704
2603.00, 
2604.00,0.3714
2605.00, 
2606.00,0.3726
2607.00, 
2608.00,0.3727
2609.00, 
2610.00,0.3718
2611.00, 
2612.00,0.3698
2613.00, 
2614.00,0.3675
2615.00, 
2616.00,0.3654
2617.00, 
2618.00,0.3645
2619.00, 
2620.00,0.3637
2621.00, 
2622.00,0.3638
2623.00, 
2624.00,0.3637
2625.00, 
2626.00,0.3651
2627.00, 
2628.00,0.3661
2629.00, 
2630.00,0.3664
2631.00, 
2632.00,0.3652
2633.00, 
2634.00,0.3641
2635.00, 
2636.00,0.3636
2637.00, 
2638.00,0.3635
2639.00, 
2640.00,0.3631
2641.00, 
2642.00,0.3629
2643.00, 
2644.00,0.3630
2645.00, 
2646.00,0.3629
2647.00, 
2648.00,0.3623
2649.00, 
2650.00,0.3611
2651.00, 
2652.00,0.3601
2653.00, 
2654.00,0.3588
2655.00, 
2656.00,0.3586
2657.00, 
2658.00,0.3587
2659.00, 
2660.00,0.3576
2661.00, 
2662.00,0.3566
2663.00, 
2664.00,0.3571
2665.00, 
2666.00,0.3611
2667.00, 
2668.00,0.3654
2669.00, 
2670.00,0.3694
2671.00, 
2672.00,0.3720
2673.00, 
2674.00,0.3738
2675.00, 
2676.00,0.3757
2677.00, 
2678.00,0.3787
2679.00, 
2680.00,0.3825
2681.00, 
2682.00,0.3866
2683.00, 
2684.00,0.3904
2685.00, 
2686.00,0.3968
2687.00, 
2688.00,0.4046
2689.00, 
2690.00,0.4145
2691.00, 
2692.00,0.4267
2693.00, 
2694.00,0.4386
2695.00, 
2696.00,0.4529
2697.00, 
2698.00,0.4623
2699.00, 
2700.00,0.4731
2701.00, 
2702.00,0.4814
2703.00, 
2704.00,0.4886
2705.00, 
2706.00,0.4961
2707.00, 
2708.00,0.5040
2709.00, 
2710.00,0.5102
2711.00, 
2712.00,0.5167
2713.00, 
2714.00,0.5202
2715.00, 
2716.00,0.5217
2717.00, 
2718.00,0.5207
2719.00, 
2720.00,0.5216
2721.00, 
2722.00,0.5180
2723.00, 
2724.00,0.5168
2725.00, 
2726.00,0.5153
2727.00, 
2728.00,0.5119
2729.00, 
2730.00,0.5076
2731.00, 
2732.00,0.5016
2733.00, 
2734.00,0.4957
2735.00, 
2736.00,0.4927
2737.00, 
2738.00,0.4888
2739.00, 
2740.00,0.4864
2741.00, 
2742.00,0.4847
2743.00, 
2744.00,0.4813
2745.00, 
2746.00,0.4779
2747.00, 
2748.00,0.4740
2749.00, 
2750.00,0.4702
2751.00, 
2752.00,0.4668
2753.00, 
2754.00,0.4634
2755.00, 
2756.00,0.4593
2757.00, 
2758.00,0.4556
2759.00, 
2760.00,0.4506
2761.00, 
2762.00,0.4459
2763.00, 
2764.00,0.4438
2765.00, 
2766.00,0.4403
2767.00, 
2768.00,0.4383
2769.00, 
2770.00,0.4357
2771.00, 
2772.00,0.4326
2773.00, 
2774.00,0.4286
2775.00, 
2776.00,0.4254
2777.00, 
2778.00,0.4215
2779.00, 
2780.00,0.4175
2781.00, 
2782.00,0.4145
2783.00, 
2784.00,0.4116
2785.00, 
2786.00,0.4087
2787.00, 
2788.00,0.4064
2789.00, 
2790.00,0.4044
2791.00, 
2792.00,0.4019
2793.00, 
2794.00,0.3992
2795.00, 
2796.00,0.3956
2797.00, 
2798.00,0.3926
2799.00, 
2800.00,0.3898
2801.00, 
2802.00,0.3872
2803.00, 
2804.00,0.3851
2805.00, 
2806.00,0.3831
2807.00, 
2808.00,0.3809
2809.00, 
2810.00,0.3788
2811.00, 
2812.00,0.3765
2813.00, 
2814.00,0.3741
2815.00, 
2816.00,0.3720
2817.00, 
2818.00,0.3700
2819.00, 
2820.00,0.3677
2821.00, 
2822.00,0.3659
2823.00, 
2824.00,0.3642
2825.00, 
2826.00,0.3625
2827.00, 
2828.00,0.3609
2829.00, 
2830.00,0.3593
2831.00, 
2832.00,0.3578
2833.00, 
2834.00,0.3563
2835.00, 
2836.00,0.3551
2837.00, 
2838.00,0.3540
2839.00, 
2840.00,0.3529
2841.00, 
2842.00,0.3518
2843.00, 
2844.00,0.3508
2845.00, 
2846.00,0.3496
2847.00, 
2848.00,0.3485
2849.00, 
2850.00,0.3478
2851.00, 
2852.00,0.3469
2853.00, 
2854.00,0.3462
2855.00, 
2856.00,0.3454
2857.00, 
2858.00,0.3444
2859.00, 
2860.00,0.3433
2861.00, 
2862.00,0.3426
2863.00, 
2864.00,0.3418
2865.00, 
2866.00,0.3411
2867.00, 
2868.00,0.3406
2869.00, 
2870.00,0.3400
2871.00, 
2872.00,0.3394
2873.00, 
2874.00,0.3387
2875.00, 
2876.00,0.3381
2877.00, 
2878.00,0.3374
2879.00, 
2880.00,0.3368
2881.00, 
2882.00,0.3360
2883.00, 
2884.00,0.3353
2885.00, 
2886.00,0.3347
2887.00, 
2888.00,0.3341
2889.00, 
2890.00,0.3333
2891.00, 
2892.00,0.3327
2893.00, 
2894.00,0.3323
2895.00, 
2896.00,0.3318
2897.00, 
2898.00,0.3313
2899.00, 
2900.00,0.3311
2901.00, 
2902.00,0.3308
2903.00, 
2904.00,0.3301
2905.00, 
2906.00,0.3296
2907.00, 
2908.00,0.3291
2909.00, 
2910.00,0.3286
2911.00, 
2912.00,0.3281
2913.00, 
2914.00,0.3278
2915.00, 
2916.00,0.3274
2917.00, 
2918.00,0.3272
2919.00, 
2920.00,0.3265
2921.00, 
2922.00,0.3260
2923.00, 
2924.00,0.3256
2925.00, 
2926.00,0.3252
2927.00, 
2928.00,0.3244
2929.00, 
2930.00,0.3241
2931.00, 
2932.00,0.3236
2933.00, 
2934.00,0.3231
2935.00, 
2936.00,0.3228
2937.00, 
2938.00,0.3224
2939.00, 
2940.00,0.3216
2941.00, 
2942.00,0.3213
2943.00, 
2944.00,0.3211
2945.00, 
2946.00,0.3206
2947.00, 
2948.00,0.3205
2949.00, 
2950.00,0.3204
2951.00, 
2952.00,0.3202
2953.00, 
2954.00,0.3196
2955.00, 
2956.00,0.3193
2957.00, 
2958.00,0.3187
2959.00, 
2960.00,0.3184
2961.00, 
2962.00,0.3178
2963.00, 
2964.00,0.3173
2965.00, 
2966.00,0.3169
2967.00, 
2968.00,0.3165
2969.00, 
2970.00,0.3158
2971.00, 
2972.00,0.3156
2973.00, 
2974.00,0.3155
2975.00, 
2976.00,0.3153
2977.00, 
2978.00,0.3150
2979.00, 
2980.00,0.3149
2981.00, 
2982.00,0.3149
2983.00, 
2984.00,0.3144
2985.00, 
2986.00,0.3141
2987.00, 
2988.00,0.3139
2989.00, 
2990.00,0.3137
2991.00, 
2992.00,0.3133
2993.00, 
2994.00,0.3131
2995.00, 
2996.00,0.3129
2997.00, 
2998.00,0.3128
2999.00, 
3000.00,0.3128
3001.00, 
3002.00,0.3126
3003.00, 
3004.00,0.3125
3005.00, 
3006.00,0.3122
3007.00, 
3008.00,0.3121
3009.00, 
3010.00,0.3119
3011.00, 
3012.00,0.3117
3013.00, 
3014.00,0.3114
3015.00, 
3016.00,0.3111
3017.00, 
3018.00,0.3110
3019.00, 
3020.00,0.3107
3021.00, 
3022.00,0.3103
3023.00, 
3024.00,0.3100
3025.00, 
3026.00,0.3097
3027.00, 
3028.00,0.3094
3029.00, 
3030.00,0.3090
3031.00, 
3032.00,0.3087
3033.00, 
3034.00,0.3083
3035.00, 
3036.00,0.3079
3037.00, 
3038.00,0.3077
3039.00, 
3040.00,0.3075
3041.00, 
3042.00,0.3071
3043.00, 
3044.00,0.3067
3045.00, 
3046.00,0.3065
3047.00, 
3048.00,0.3064
3049.00, 
3050.00,0.3062
3051.00, 
3052.00,0.3060
3053.00, 
3054.00,0.3056
3055.00, 
3056.00,0.3052
3057.00, 
3058.00,0.3050
3059.00, 
3060.00,0.3049
3061.00, 
3062.00,0.3046
3063.00, 
3064.00,0.3042
3065.00, 
3066.00,0.3037
3067.00, 
3068.00,0.3033
3069.00, 
3070.00,0.3030
3071.00, 
3072.00,0.3027
3073.00, 
3074.00,0.3024
3075.00, 
3076.00,0.3021
3077.00, 
3078.00,0.3016
3079.00, 
3080.00,0.3012
3081.00, 
3082.00,0.3009
3083.00, 
3084.00,0.3006
3085.00, 
3086.00,0.3004
3087.00, 
3088.00,0.3001
3089.00, 
3090.00,0.2998
3091.00, 
3092.00,0.2995
3093.00, 
3094.00,0.2990
3095.00, 
3096.00,0.2990
3097.00, 
3098.00,0.2988
3099.00, 
3100.00,0.2985
3101.00, 
3102.00,0.2983
3103.00, 
3104.00,0.2978
3105.00, 
3106.00,0.2976
3107.00, 
3108.00,0.2973
3109.00, 
3110.00,0.2971
3111.00, 
3112.00,0.2970
3113.00, 
3114.00,0.2966
3115.00, 
3116.00,0.2965
3117.00, 
3118.00,0.2963
3119.00, 
3120.00,0.2960
3121.00, 
3122.00,0.2956
3123.00, 
3124.00,0.2955
3125.00, 
3126.00,0.2954
3127.00, 
3128.00,0.2949
3129.00, 
3130.00,0.2943
3131.00, 
3132.00,0.2942
3133.00, 
3134.00,0.2940
3135.00, 
3136.00,0.2938
3137.00, 
3138.00,0.2936
3139.00, 
3140.00,0.2938
3141.00, 
3142.00,0.2936
3143.00, 
3144.00,0.2932
3145.00, 
3146.00,0.2928
3147.00, 
3148.00,0.2926
3149.00, 
3150.00,0.2922
3151.00, 
3152.00,0.2917
3153.00, 
3154.00,0.2916
3155.00, 
3156.00,0.2912
3157.00, 
3158.00,0.2906
3159.00, 
3160.00,0.2899
3161.00, 
3162.00,0.2900
3163.00, 
3164.00,0.2902
3165.00, 
3166.00,0.2902
3167.00, 
3168.00,0.2896
3169.00, 
3170.00,0.2893
3171.00, 
3172.00,0.2884
3173.00, 
3174.00,0.2882
3175.00, 
3176.00,0.2871
3177.00, 
3178.00,0.2872
3179.00, 
3180.00,0.2867
3181.00, 
3182.00,0.2862
3183.00, 
3184.00,0.2857
3185.00, 
3186.00,0.2855
3187.00, 
3188.00,0.2853
3189.00, 
3190.00,0.2855
3191.00, 
3192.00,0.2856
3193.00, 
3194.00,0.2863
3195.00, 
3196.00,0.2861
3197.00, 
3198.00,0.2861
3199.00, 
3200.00,0.2860
3201.00, 
3202.00,0.2859
3203.00, 
3204.00,0.2863
3205.00, 
3206.00,0.2859
3207.00, 
3208.00,0.2863
3209.00, 
3210.00,0.2858
3211.00, 
3212.00,0.2857
3213.00, 
3214.00,0.2858
3215.00, 
3216.00,0.2853
3217.00, 
3218.00,0.2855
3219.00, 
3220.00,0.2857
3221.00, 
3222.00,0.2850
3223.00, 
3224.00,0.2847
3225.00, 
3226.00,0.2840
3227.00, 
3228.00,0.2837
3229.00, 
3230.00,0.2828
3231.00, 
3232.00,0.2818
3233.00, 
3234.00,0.2815
3235.00, 
3236.00,0.2808
3237.00, 
3238.00,0.2810
3239.00, 
3240.00,0.2799
3241.00, 
3242.00,0.2788
3243.00, 
3244.00,0.2780
3245.00, 
3246.00,0.2783
3247.00, 
3248.00,0.2776
3249.00, 
3250.00,0.2771
3251.00, 
3252.00,0.2758
3253.00, 
3254.00,0.2760
3255.00, 
3256.00,0.2750
3257.00, 
3258.00,0.2771
3259.00, 
3260.00,0.2785
3261.00, 
3262.00,0.2787
3263.00, 
3264.00,0.2795
3265.00, 
3266.00,0.2795
3267.00, 
3268.00,0.2807
3269.00, 
3270.00,0.2815
3271.00, 
3272.00,0.2802
3273.00, 
3274.00,0.2816
3275.00, 
3276.00,0.2799
3277.00, 
3278.00,0.2794
3279.00, 
3280.00,0.2787
3281.00, 
3282.00,0.2770
3283.00, 
3284.00,0.2774
3285.00, 
3286.00,0.2752
3287.00, 
3288.00,0.2763
3289.00, 
3290.00,0.2763
3291.00, 
3292.00,0.2750
3293.00, 
3294.00,0.2754
3295.00, 
3296.00,0.2754
3297.00, 
3298.00,0.2763
3299.00, 
3300.00,0.2769
