"20-30mM-1_THF30mM - RawData"
"Wavelength nm."	"Abs."
300.00	0.3006
301.00	0.3014
302.00	0.3021
303.00	0.3029
304.00	0.3030
305.00	0.3034
306.00	0.3038
307.00	0.3049
308.00	0.3062
309.00	0.3078
310.00	0.3090
311.00	0.3103
312.00	0.3117
313.00	0.3131
314.00	0.3147
315.00	0.3172
316.00	0.3198
317.00	0.3220
318.00	0.3245
319.00	0.3274
320.00	0.3298
321.00	0.3322
322.00	0.3346
323.00	0.3372
324.00	0.3394
325.00	0.3420
326.00	0.3446
327.00	0.3471
328.00	0.3497
329.00	0.3525
330.00	0.3554
331.00	0.3579
332.00	0.3602
333.00	0.3630
334.00	0.3660
335.00	0.3691
336.00	0.3729
337.00	0.3770
338.00	0.3803
339.00	0.3837
340.00	0.3873
341.00	0.3908
342.00	0.3943
343.00	0.3982
344.00	0.4018
345.00	0.4056
346.00	0.4091
347.00	0.4126
348.00	0.4159
349.00	0.4193
350.00	0.4224
351.00	0.4259
352.00	0.4295
353.00	0.4331
354.00	0.4369
355.00	0.4407
356.00	0.4446
357.00	0.4484
358.00	0.4524
359.00	0.4565
360.00	0.4608
361.00	0.4649
362.00	0.4686
363.00	0.4734
364.00	0.4783
365.00	0.4835
366.00	0.4891
367.00	0.4954
368.00	0.5010
369.00	0.5070
370.00	0.5131
371.00	0.5200
372.00	0.5261
373.00	0.5324
374.00	0.5386
375.00	0.5450
376.00	0.5513
377.00	0.5591
378.00	0.5672
379.00	0.5756
380.00	0.5844
381.00	0.5934
382.00	0.6022
383.00	0.6115
384.00	0.6212
385.00	0.6308
386.00	0.6405
387.00	0.6503
388.00	0.6597
389.00	0.6684
390.00	0.6769
391.00	0.6851
392.00	0.6930
393.00	0.7004
394.00	0.7075
395.00	0.7144
396.00	0.7208
397.00	0.7272
398.00	0.7336
399.00	0.7399
400.00	0.7466
401.00	0.7535
402.00	0.7608
403.00	0.7682
404.00	0.7759
405.00	0.7832
406.00	0.7905
407.00	0.7975
408.00	0.8040
409.00	0.8102
410.00	0.8158
411.00	0.8209
412.00	0.8250
413.00	0.8283
414.00	0.8308
415.00	0.8325
416.00	0.8330
417.00	0.8326
418.00	0.8315
419.00	0.8295
420.00	0.8269
421.00	0.8236
422.00	0.8199
423.00	0.8152
424.00	0.8099
425.00	0.8043
426.00	0.7987
427.00	0.7930
428.00	0.7875
429.00	0.7822
430.00	0.7772
431.00	0.7727
432.00	0.7685
433.00	0.7654
434.00	0.7624
435.00	0.7601
436.00	0.7581
437.00	0.7566
438.00	0.7550
439.00	0.7539
440.00	0.7531
441.00	0.7524
442.00	0.7520
443.00	0.7520
444.00	0.7522
445.00	0.7527
446.00	0.7537
447.00	0.7549
448.00	0.7565
449.00	0.7583
450.00	0.7606
451.00	0.7629
452.00	0.7654
453.00	0.7681
454.00	0.7710
455.00	0.7739
456.00	0.7771
457.00	0.7805
458.00	0.7839
459.00	0.7875
460.00	0.7912
461.00	0.7950
462.00	0.7988
463.00	0.8023
464.00	0.8059
465.00	0.8093
466.00	0.8125
467.00	0.8155
468.00	0.8187
469.00	0.8217
470.00	0.8245
471.00	0.8273
472.00	0.8303
473.00	0.8332
474.00	0.8361
475.00	0.8391
476.00	0.8419
477.00	0.8445
478.00	0.8472
479.00	0.8497
480.00	0.8521
481.00	0.8547
482.00	0.8573
483.00	0.8596
484.00	0.8619
485.00	0.8641
486.00	0.8659
487.00	0.8675
488.00	0.8690
489.00	0.8704
490.00	0.8720
491.00	0.8733
492.00	0.8748
493.00	0.8762
494.00	0.8776
495.00	0.8785
496.00	0.8795
497.00	0.8803
498.00	0.8811
499.00	0.8816
500.00	0.8821
501.00	0.8825
502.00	0.8829
503.00	0.8832
504.00	0.8835
505.00	0.8838
506.00	0.8837
507.00	0.8836
508.00	0.8832
509.00	0.8825
510.00	0.8816
511.00	0.8808
512.00	0.8798
513.00	0.8787
514.00	0.8774
515.00	0.8760
516.00	0.8745
517.00	0.8728
518.00	0.8711
519.00	0.8692
520.00	0.8675
521.00	0.8656
522.00	0.8635
523.00	0.8613
524.00	0.8590
525.00	0.8565
526.00	0.8544
527.00	0.8522
528.00	0.8501
529.00	0.8480
530.00	0.8458
531.00	0.8436
532.00	0.8407
533.00	0.8378
534.00	0.8348
535.00	0.8319
536.00	0.8284
537.00	0.8259
538.00	0.8233
539.00	0.8208
540.00	0.8180
541.00	0.8151
542.00	0.8121
543.00	0.8089
544.00	0.8058
545.00	0.8026
546.00	0.7995
547.00	0.7964
548.00	0.7932
549.00	0.7899
550.00	0.7867
551.00	0.7836
552.00	0.7805
553.00	0.7774
554.00	0.7741
555.00	0.7708
556.00	0.7673
557.00	0.7638
558.00	0.7600
559.00	0.7563
560.00	0.7526
561.00	0.7489
562.00	0.7457
563.00	0.7428
564.00	0.7401
565.00	0.7374
566.00	0.7340
567.00	0.7300
568.00	0.7256
569.00	0.7210
570.00	0.7165
571.00	0.7128
572.00	0.7092
573.00	0.7055
574.00	0.7017
575.00	0.6976
576.00	0.6932
577.00	0.6890
578.00	0.6849
579.00	0.6807
580.00	0.6764
581.00	0.6724
582.00	0.6682
583.00	0.6637
584.00	0.6594
585.00	0.6551
586.00	0.6506
587.00	0.6461
588.00	0.6416
589.00	0.6372
590.00	0.6328
591.00	0.6283
592.00	0.6238
593.00	0.6193
594.00	0.6148
595.00	0.6102
596.00	0.6056
597.00	0.6011
598.00	0.5966
599.00	0.5923
600.00	0.5880
601.00	0.5840
602.00	0.5801
603.00	0.5763
604.00	0.5722
605.00	0.5681
606.00	0.5640
607.00	0.5599
608.00	0.5562
609.00	0.5527
610.00	0.5496
611.00	0.5462
612.00	0.5428
613.00	0.5392
614.00	0.5358
615.00	0.5328
616.00	0.5303
617.00	0.5281
618.00	0.5256
619.00	0.5229
620.00	0.5201
621.00	0.5177
622.00	0.5155
623.00	0.5139
624.00	0.5123
625.00	0.5106
626.00	0.5086
627.00	0.5069
628.00	0.5053
629.00	0.5043
630.00	0.5033
631.00	0.5023
632.00	0.5009
633.00	0.4994
634.00	0.4978
635.00	0.4966
636.00	0.4959
637.00	0.4958
638.00	0.4958
639.00	0.4956
640.00	0.4952
641.00	0.4946
642.00	0.4939
643.00	0.4934
644.00	0.4931
645.00	0.4930
646.00	0.4928
647.00	0.4928
648.00	0.4928
649.00	0.4932
650.00	0.4936
651.00	0.4943
652.00	0.4948
653.00	0.4954
654.00	0.4957
655.00	0.4961
656.00	0.4965
657.00	0.4972
658.00	0.4980
659.00	0.4990
660.00	0.4997
661.00	0.5004
662.00	0.5011
663.00	0.5017
664.00	0.5021
665.00	0.5030
666.00	0.5039
667.00	0.5045
668.00	0.5052
669.00	0.5062
670.00	0.5079
671.00	0.5088
672.00	0.5098
673.00	0.5110
674.00	0.5121
675.00	0.5124
676.00	0.5136
677.00	0.5147
678.00	0.5156
679.00	0.5167
680.00	0.5179
681.00	0.5192
682.00	0.5208
683.00	0.5220
684.00	0.5230
685.00	0.5238
686.00	0.5241
687.00	0.5244
688.00	0.5249
689.00	0.5254
690.00	0.5254
691.00	0.5261
692.00	0.5264
693.00	0.5269
694.00	0.5274
695.00	0.5283
696.00	0.5282
697.00	0.5283
698.00	0.5282
699.00	0.5282
700.00	0.5283
701.00	0.5290
702.00	0.5294
703.00	0.5300
704.00	0.5302
705.00	0.5306
706.00	0.5305
707.00	0.5306
708.00	0.5309
709.00	0.5311
710.00	0.5312
711.00	0.5314
712.00	0.5320
713.00	0.5326
714.00	0.5330
715.00	0.5332
716.00	0.5334
717.00	0.5331
718.00	0.5329
719.00	0.5333
720.00	0.5340
721.00	0.5346
722.00	0.5355
723.00	0.5363
724.00	0.5365
725.00	0.5374
726.00	0.5375
727.00	0.5384
728.00	0.5392
729.00	0.5407
730.00	0.5415
731.00	0.5437
732.00	0.5454
733.00	0.5473
734.00	0.5489
735.00	0.5506
736.00	0.5518
737.00	0.5534
738.00	0.5553
739.00	0.5577
740.00	0.5599
741.00	0.5623
742.00	0.5643
743.00	0.5661
744.00	0.5678
745.00	0.5701
746.00	0.5721
747.00	0.5739
748.00	0.5762
749.00	0.5777
750.00	0.5793
751.00	0.5808
752.00	0.5825
753.00	0.5832
754.00	0.5845
755.00	0.5854
756.00	0.5865
757.00	0.5874
758.00	0.5886
759.00	0.5895
760.00	0.5905
761.00	0.5915
762.00	0.5926
763.00	0.5935
764.00	0.5942
765.00	0.5948
766.00	0.5951
767.00	0.5949
768.00	0.5942
769.00	0.5934
770.00	0.5919
771.00	0.5900
772.00	0.5880
773.00	0.5860
774.00	0.5833
775.00	0.5806
776.00	0.5780
777.00	0.5751
778.00	0.5721
779.00	0.5694
780.00	0.5666
781.00	0.5636
782.00	0.5608
783.00	0.5582
784.00	0.5561
785.00	0.5542
786.00	0.5520
787.00	0.5499
788.00	0.5480
789.00	0.5457
790.00	0.5433
791.00	0.5411
792.00	0.5385
793.00	0.5358
794.00	0.5330
795.00	0.5302
796.00	0.5272
797.00	0.5240
798.00	0.5210
799.00	0.5182
800.00	0.5156
801.00	0.5134
802.00	0.5116
803.00	0.5095
804.00	0.5074
805.00	0.5053
806.00	0.5032
807.00	0.5012
808.00	0.4995
809.00	0.4979
810.00	0.4963
811.00	0.4947
812.00	0.4933
813.00	0.4920
814.00	0.4909
815.00	0.4902
816.00	0.4898
817.00	0.4896
818.00	0.4893
819.00	0.4893
820.00	0.4895
821.00	0.4894
822.00	0.4895
823.00	0.4899
824.00	0.4900
825.00	0.4904
826.00	0.4907
827.00	0.4914
828.00	0.4922
829.00	0.4932
830.00	0.4942
831.00	0.4963
832.00	0.4976
833.00	0.4991
834.00	0.5006
835.00	0.5022
836.00	0.5038
837.00	0.5057
838.00	0.5076
839.00	0.5099
840.00	0.5122
841.00	0.5147
842.00	0.5173
843.00	0.5199
844.00	0.5225
845.00	0.5251
846.00	0.5279
847.00	0.5304
848.00	0.5325
849.00	0.5345
850.00	0.5364
851.00	0.5379
852.00	0.5390
853.00	0.5400
854.00	0.5407
855.00	0.5409
856.00	0.5407
857.00	0.5405
858.00	0.5397
859.00	0.5391
860.00	0.5383
861.00	0.5378
862.00	0.5372
863.00	0.5365
864.00	0.5357
865.00	0.5348
866.00	0.5338
867.00	0.5327
868.00	0.5317
869.00	0.5304
870.00	0.5292
871.00	0.5276
872.00	0.5258
873.00	0.5238
874.00	0.5216
875.00	0.5192
876.00	0.5165
877.00	0.5133
878.00	0.5098
879.00	0.5059
880.00	0.5017
881.00	0.4972
882.00	0.4929
883.00	0.4883
884.00	0.4835
885.00	0.4787
886.00	0.4738
887.00	0.4688
888.00	0.4638
889.00	0.4588
890.00	0.4541
891.00	0.4493
892.00	0.4445
893.00	0.4399
894.00	0.4354
895.00	0.4308
896.00	0.4266
897.00	0.4225
898.00	0.4184
899.00	0.4143
900.00	0.4102
901.00	0.4060
902.00	0.4017
903.00	0.3976
904.00	0.3938
905.00	0.3901
906.00	0.3865
907.00	0.3830
908.00	0.3797
909.00	0.3761
910.00	0.3726
911.00	0.3691
912.00	0.3658
913.00	0.3624
914.00	0.3591
915.00	0.3560
916.00	0.3528
917.00	0.3497
918.00	0.3466
919.00	0.3437
920.00	0.3407
921.00	0.3376
922.00	0.3343
923.00	0.3314
924.00	0.3283
925.00	0.3254
926.00	0.3226
927.00	0.3200
928.00	0.3173
929.00	0.3146
930.00	0.3121
931.00	0.3094
932.00	0.3069
933.00	0.3043
934.00	0.3020
935.00	0.2997
936.00	0.2975
937.00	0.2951
938.00	0.2929
939.00	0.2905
940.00	0.2880
941.00	0.2854
942.00	0.2832
943.00	0.2809
944.00	0.2787
945.00	0.2766
946.00	0.2743
947.00	0.2723
948.00	0.2702
949.00	0.2680
950.00	0.2659
951.00	0.2641
952.00	0.2620
953.00	0.2599
954.00	0.2580
955.00	0.2559
956.00	0.2538
957.00	0.2519
958.00	0.2499
959.00	0.2481
960.00	0.2462
961.00	0.2443
962.00	0.2424
963.00	0.2406
964.00	0.2387
965.00	0.2369
966.00	0.2352
967.00	0.2334
968.00	0.2317
969.00	0.2300
970.00	0.2283
971.00	0.2266
972.00	0.2249
973.00	0.2231
974.00	0.2213
975.00	0.2196
976.00	0.2178
977.00	0.2163
978.00	0.2148
979.00	0.2132
980.00	0.2117
981.00	0.2101
982.00	0.2085
983.00	0.2071
984.00	0.2056
985.00	0.2040
986.00	0.2028
987.00	0.2012
988.00	0.1998
989.00	0.1985
990.00	0.1968
991.00	0.1949
992.00	0.1935
993.00	0.1920
994.00	0.1905
995.00	0.1893
996.00	0.1882
997.00	0.1868
998.00	0.1855
999.00	0.1841
1000.00	0.1827
1001.00	0.1813
1002.00	0.1800
1003.00	0.1785
1004.00	0.1774
1005.00	0.1759
1006.00	0.1745
1007.00	0.1733
1008.00	0.1722
1009.00	0.1709
1010.00	0.1698
1011.00	0.1688
1012.00	0.1676
1013.00	0.1666
1014.00	0.1652
1015.00	0.1641
1016.00	0.1629
1017.00	0.1619
1018.00	0.1607
1019.00	0.1600
1020.00	0.1590
1021.00	0.1580
1022.00	0.1570
1023.00	0.1558
1024.00	0.1548
1025.00	0.1535
1026.00	0.1525
1027.00	0.1514
1028.00	0.1505
1029.00	0.1494
1030.00	0.1488
1031.00	0.1480
1032.00	0.1473
1033.00	0.1463
1034.00	0.1455
1035.00	0.1447
1036.00	0.1434
1037.00	0.1420
1038.00	0.1410
1039.00	0.1402
1040.00	0.1392
1041.00	0.1389
1042.00	0.1387
1043.00	0.1381
1044.00	0.1374
1045.00	0.1366
1046.00	0.1357
1047.00	0.1349
1048.00	0.1338
1049.00	0.1329
1050.00	0.1320
1051.00	0.1312
1052.00	0.1303
1053.00	0.1300
1054.00	0.1294
1055.00	0.1291
1056.00	0.1286
1057.00	0.1282
1058.00	0.1279
1059.00	0.1273
1060.00	0.1265
1061.00	0.1259
1062.00	0.1252
1063.00	0.1243
1064.00	0.1238
1065.00	0.1234
1066.00	0.1228
1067.00	0.1222
1068.00	0.1217
1069.00	0.1210
1070.00	0.1204
1071.00	0.1199
1072.00	0.1194
1073.00	0.1187
1074.00	0.1184
1075.00	0.1180
1076.00	0.1178
1077.00	0.1172
1078.00	0.1172
1079.00	0.1167
1080.00	0.1161
1081.00	0.1153
1082.00	0.1151
1083.00	0.1145
1084.00	0.1141
1085.00	0.1137
1086.00	0.1137
1087.00	0.1132
1088.00	0.1128
1089.00	0.1126
1090.00	0.1123
1091.00	0.1120
1092.00	0.1117
1093.00	0.1114
1094.00	0.1111
1095.00	0.1107
1096.00	0.1105
1097.00	0.1103
1098.00	0.1101
1099.00	0.1101
1100.00	0.1100
1101.00	0.1097
1102.00	0.1094
1103.00	0.1090
1104.00	0.1085
1105.00	0.1083
1106.00	0.1081
1107.00	0.1078
1108.00	0.1077
1109.00	0.1076
1110.00	0.1073
1111.00	0.1073
1112.00	0.1072
1113.00	0.1070
1114.00	0.1069
1115.00	0.1067
1116.00	0.1063
1117.00	0.1061
1118.00	0.1061
1119.00	0.1058
1120.00	0.1058
1121.00	0.1057
1122.00	0.1057
1123.00	0.1054
1124.00	0.1053
1125.00	0.1052
1126.00	0.1051
1127.00	0.1049
1128.00	0.1050
1129.00	0.1050
1130.00	0.1047
1131.00	0.1047
1132.00	0.1047
1133.00	0.1046
1134.00	0.1046
1135.00	0.1046
1136.00	0.1045
1137.00	0.1044
1138.00	0.1043
1139.00	0.1041
1140.00	0.1041
1141.00	0.1040
1142.00	0.1039
1143.00	0.1039
1144.00	0.1041
1145.00	0.1044
1146.00	0.1045
1147.00	0.1046
1148.00	0.1045
1149.00	0.1044
1150.00	0.1040
1151.00	0.1040
1152.00	0.1041
1153.00	0.1040
1154.00	0.1039
1155.00	0.1041
1156.00	0.1040
1157.00	0.1041
1158.00	0.1042
1159.00	0.1043
1160.00	0.1042
1161.00	0.1043
1162.00	0.1042
1163.00	0.1042
1164.00	0.1043
1165.00	0.1043
1166.00	0.1043
1167.00	0.1044
1168.00	0.1046
1169.00	0.1046
1170.00	0.1048
1171.00	0.1050
1172.00	0.1051
1173.00	0.1052
1174.00	0.1053
1175.00	0.1056
1176.00	0.1056
1177.00	0.1056
1178.00	0.1055
1179.00	0.1054
1180.00	0.1053
1181.00	0.1055
1182.00	0.1056
1183.00	0.1058
1184.00	0.1060
1185.00	0.1060
1186.00	0.1062
1187.00	0.1064
1188.00	0.1063
1189.00	0.1063
1190.00	0.1064
1191.00	0.1063
1192.00	0.1065
1193.00	0.1067
1194.00	0.1070
1195.00	0.1074
1196.00	0.1074
1197.00	0.1075
1198.00	0.1076
1199.00	0.1076
1200.00	0.1074
1201.00	0.1078
1202.00	0.1080
1203.00	0.1085
1204.00	0.1090
1205.00	0.1092
1206.00	0.1094
1207.00	0.1095
1208.00	0.1095
1209.00	0.1094
1210.00	0.1096
1211.00	0.1096
1212.00	0.1097
1213.00	0.1098
1214.00	0.1098
1215.00	0.1100
1216.00	0.1105
1217.00	0.1105
1218.00	0.1107
1219.00	0.1112
1220.00	0.1107
1221.00	0.1104
1222.00	0.1107
1223.00	0.1109
1224.00	0.1109
1225.00	0.1117
1226.00	0.1122
1227.00	0.1123
1228.00	0.1125
1229.00	0.1128
1230.00	0.1129
1231.00	0.1131
1232.00	0.1134
1233.00	0.1136
1234.00	0.1137
1235.00	0.1139
1236.00	0.1141
1237.00	0.1142
1238.00	0.1143
1239.00	0.1147
1240.00	0.1150
1241.00	0.1153
1242.00	0.1155
1243.00	0.1157
1244.00	0.1159
1245.00	0.1163
1246.00	0.1164
1247.00	0.1167
1248.00	0.1170
1249.00	0.1170
1250.00	0.1173
1251.00	0.1174
1252.00	0.1174
1253.00	0.1177
1254.00	0.1179
1255.00	0.1179
1256.00	0.1183
1257.00	0.1189
1258.00	0.1191
1259.00	0.1195
1260.00	0.1199
1261.00	0.1202
1262.00	0.1205
1263.00	0.1209
1264.00	0.1212
1265.00	0.1214
1266.00	0.1216
1267.00	0.1215
1268.00	0.1217
1269.00	0.1221
1270.00	0.1225
1271.00	0.1229
1272.00	0.1234
1273.00	0.1235
1274.00	0.1238
1275.00	0.1240
1276.00	0.1243
1277.00	0.1245
1278.00	0.1248
1279.00	0.1250
1280.00	0.1255
1281.00	0.1259
1282.00	0.1263
1283.00	0.1266
1284.00	0.1268
1285.00	0.1269
1286.00	0.1270
1287.00	0.1273
1288.00	0.1274
1289.00	0.1278
1290.00	0.1282
1291.00	0.1286
1292.00	0.1290
1293.00	0.1295
1294.00	0.1298
1295.00	0.1302
1296.00	0.1306
1297.00	0.1309
1298.00	0.1314
1299.00	0.1318
1300.00	0.1321
1301.00	0.1324
1302.00	0.1327
1303.00	0.1330
1304.00	0.1334
1305.00	0.1338
1306.00	0.1342
1307.00	0.1345
1308.00	0.1346
1309.00	0.1352
1310.00	0.1354
1311.00	0.1358
1312.00	0.1365
1313.00	0.1367
1314.00	0.1373
1315.00	0.1379
1316.00	0.1383
1317.00	0.1384
1318.00	0.1390
1319.00	0.1390
1320.00	0.1391
1321.00	0.1396
1322.00	0.1399
1323.00	0.1403
1324.00	0.1406
1325.00	0.1411
1326.00	0.1414
1327.00	0.1420
1328.00	0.1425
1329.00	0.1428
1330.00	0.1433
1331.00	0.1437
1332.00	0.1439
1333.00	0.1443
1334.00	0.1448
1335.00	0.1450
1336.00	0.1456
1337.00	0.1461
1338.00	0.1464
1339.00	0.1467
1340.00	0.1473
1341.00	0.1479
1342.00	0.1482
1343.00	0.1485
1344.00	0.1491
1345.00	0.1498
1346.00	0.1499
1347.00	0.1507
1348.00	0.1514
1349.00	0.1519
1350.00	0.1522
1351.00	0.1529
1352.00	0.1534
1353.00	0.1540
1354.00	0.1545
1355.00	0.1547
1356.00	0.1554
1357.00	0.1556
1358.00	0.1561
1359.00	0.1567
1360.00	0.1576
1361.00	0.1581
1362.00	0.1590
1363.00	0.1597
1364.00	0.1602
1365.00	0.1610
1366.00	0.1616
1367.00	0.1621
1368.00	0.1626
1369.00	0.1632
1370.00	0.1634
1371.00	0.1641
1372.00	0.1646
1373.00	0.1650
1374.00	0.1657
1375.00	0.1664
1376.00	0.1669
1377.00	0.1676
1378.00	0.1684
1379.00	0.1688
1380.00	0.1694
1381.00	0.1699
1382.00	0.1705
1383.00	0.1714
1384.00	0.1723
1385.00	0.1730
1386.00	0.1736
1387.00	0.1742
1388.00	0.1746
1389.00	0.1747
1390.00	0.1751
1391.00	0.1757
1392.00	0.1764
1393.00	0.1770
1394.00	0.1779
1395.00	0.1787
1396.00	0.1796
1397.00	0.1802
1398.00	0.1810
1399.00	0.1818
1400.00	0.1824
1401.00	0.1829
1402.00	0.1836
1403.00	0.1841
1404.00	0.1844
1405.00	0.1850
1406.00	0.1857
1407.00	0.1864
1408.00	0.1873
1409.00	0.1885
1410.00	0.1890
1411.00	0.1896
1412.00	0.1901
1413.00	0.1906
1414.00	0.1913
1415.00	0.1922
1416.00	0.1928
1417.00	0.1936
1418.00	0.1945
1419.00	0.1950
1420.00	0.1949
1421.00	0.1955
1422.00	0.1963
1423.00	0.1968
1424.00	0.1974
1425.00	0.1988
1426.00	0.2000
1427.00	0.2008
1428.00	0.2012
1429.00	0.2020
1430.00	0.2028
1431.00	0.2032
1432.00	0.2038
1433.00	0.2048
1434.00	0.2051
1435.00	0.2055
1436.00	0.2062
1437.00	0.2070
1438.00	0.2078
1439.00	0.2086
1440.00	0.2098
1441.00	0.2103
1442.00	0.2107
1443.00	0.2114
1444.00	0.2122
1445.00	0.2128
1446.00	0.2136
1447.00	0.2143
1448.00	0.2146
1449.00	0.2153
1450.00	0.2156
1451.00	0.2158
1452.00	0.2164
1453.00	0.2175
1454.00	0.2182
1455.00	0.2193
1456.00	0.2208
1457.00	0.2218
1458.00	0.2225
1459.00	0.2233
1460.00	0.2241
1461.00	0.2247
1462.00	0.2255
1463.00	0.2262
1464.00	0.2267
1465.00	0.2274
1466.00	0.2282
1467.00	0.2288
1468.00	0.2295
1469.00	0.2302
1470.00	0.2311
1471.00	0.2322
1472.00	0.2331
1473.00	0.2343
1474.00	0.2353
1475.00	0.2361
1476.00	0.2364
1477.00	0.2372
1478.00	0.2375
1479.00	0.2381
1480.00	0.2388
1481.00	0.2397
1482.00	0.2404
1483.00	0.2416
1484.00	0.2427
1485.00	0.2436
1486.00	0.2439
1487.00	0.2445
1488.00	0.2453
1489.00	0.2459
1490.00	0.2466
1491.00	0.2477
1492.00	0.2486
1493.00	0.2492
1494.00	0.2503
1495.00	0.2512
1496.00	0.2521
1497.00	0.2530
1498.00	0.2535
1499.00	0.2540
1500.00	0.2547
1501.00	0.2557
1502.00	0.2563
1503.00	0.2575
1504.00	0.2582
1505.00	0.2591
1506.00	0.2599
1507.00	0.2611
1508.00	0.2621
1509.00	0.2631
1510.00	0.2638
1511.00	0.2646
1512.00	0.2652
1513.00	0.2658
1514.00	0.2669
1515.00	0.2678
1516.00	0.2684
1517.00	0.2694
1518.00	0.2703
1519.00	0.2711
1520.00	0.2717
1521.00	0.2725
1522.00	0.2733
1523.00	0.2742
1524.00	0.2748
1525.00	0.2759
1526.00	0.2768
1527.00	0.2774
1528.00	0.2782
1529.00	0.2791
1530.00	0.2798
1531.00	0.2808
1532.00	0.2820
1533.00	0.2825
1534.00	0.2836
1535.00	0.2843
1536.00	0.2851
1537.00	0.2858
1538.00	0.2867
1539.00	0.2876
1540.00	0.2884
1541.00	0.2892
1542.00	0.2899
1543.00	0.2907
1544.00	0.2914
1545.00	0.2925
1546.00	0.2934
1547.00	0.2944
1548.00	0.2954
1549.00	0.2963
1550.00	0.2970
1551.00	0.2979
1552.00	0.2987
1553.00	0.2995
1554.00	0.3005
1555.00	0.3010
1556.00	0.3020
1557.00	0.3028
1558.00	0.3036
1559.00	0.3042
1560.00	0.3053
1561.00	0.3062
1562.00	0.3070
1563.00	0.3080
1564.00	0.3087
1565.00	0.3097
1566.00	0.3105
1567.00	0.3113
1568.00	0.3121
1569.00	0.3130
1570.00	0.3140
1571.00	0.3149
1572.00	0.3158
1573.00	0.3166
1574.00	0.3176
1575.00	0.3183
1576.00	0.3191
1577.00	0.3201
1578.00	0.3213
1579.00	0.3220
1580.00	0.3227
1581.00	0.3236
1582.00	0.3241
1583.00	0.3250
1584.00	0.3260
1585.00	0.3269
1586.00	0.3280
1587.00	0.3289
1588.00	0.3296
1589.00	0.3307
1590.00	0.3315
1591.00	0.3321
1592.00	0.3331
1593.00	0.3337
1594.00	0.3345
1595.00	0.3355
1596.00	0.3366
1597.00	0.3375
1598.00	0.3383
1599.00	0.3392
1600.00	0.3402
1601.00	0.3410
1602.00	0.3417
1603.00	0.3426
1604.00	0.3431
1605.00	0.3439
1606.00	0.3445
1607.00	0.3452
1608.00	0.3459
1609.00	0.3470
1610.00	0.3475
1611.00	0.3484
1612.00	0.3492
1613.00	0.3502
1614.00	0.3509
1615.00	0.3517
1616.00	0.3524
1617.00	0.3534
1618.00	0.3542
1619.00	0.3550
1620.00	0.3560
1621.00	0.3565
1622.00	0.3572
1623.00	0.3578
1624.00	0.3587
1625.00	0.3597
1626.00	0.3606
1627.00	0.3614
1628.00	0.3622
1629.00	0.3628
1630.00	0.3631
1631.00	0.3640
1632.00	0.3641
1633.00	0.3648
1634.00	0.3652
1635.00	0.3659
1636.00	0.3664
1637.00	0.3672
1638.00	0.3678
1639.00	0.3684
1640.00	0.3691
1641.00	0.3696
1642.00	0.3702
1643.00	0.3706
1644.00	0.3711
1645.00	0.3711
1646.00	0.3712
1647.00	0.3715
1648.00	0.3717
1649.00	0.3717
1650.00	0.3719
1651.00	0.3722
1652.00	0.3722
1653.00	0.3721
1654.00	0.3724
1655.00	0.3724
1656.00	0.3724
1657.00	0.3725
1658.00	0.3729
1659.00	0.3734
1660.00	0.3739
1661.00	0.3746
1662.00	0.3753
1663.00	0.3759
1664.00	0.3763
1665.00	0.3770
1666.00	0.3774
1667.00	0.3780
1668.00	0.3786
1669.00	0.3792
1670.00	0.3798
1671.00	0.3805
1672.00	0.3813
1673.00	0.3821
1674.00	0.3829
1675.00	0.3836
1676.00	0.3843
1677.00	0.3848
1678.00	0.3851
1679.00	0.3856
1680.00	0.3861
1681.00	0.3867
1682.00	0.3873
1683.00	0.3881
1684.00	0.3888
1685.00	0.3892
1686.00	0.3897
1687.00	0.3905
1688.00	0.3912
1689.00	0.3917
1690.00	0.3925
1691.00	0.3930
1692.00	0.3934
1693.00	0.3939
1694.00	0.3945
1695.00	0.3949
1696.00	0.3957
1697.00	0.3962
1698.00	0.3969
1699.00	0.3977
1700.00	0.3983
1701.00	0.3989
1702.00	0.3996
1703.00	0.4000
1704.00	0.4002
1705.00	0.4008
1706.00	0.4013
1707.00	0.4018
1708.00	0.4025
1709.00	0.4032
1710.00	0.4041
1711.00	0.4047
1712.00	0.4057
1713.00	0.4065
1714.00	0.4073
1715.00	0.4076
1716.00	0.4083
1717.00	0.4085
1718.00	0.4087
1719.00	0.4090
1720.00	0.4095
1721.00	0.4097
1722.00	0.4102
1723.00	0.4108
1724.00	0.4113
1725.00	0.4121
1726.00	0.4128
1727.00	0.4133
1728.00	0.4142
1729.00	0.4149
1730.00	0.4154
1731.00	0.4159
1732.00	0.4163
1733.00	0.4166
1734.00	0.4170
1735.00	0.4174
1736.00	0.4180
1737.00	0.4186
1738.00	0.4189
1739.00	0.4196
1740.00	0.4204
1741.00	0.4210
1742.00	0.4218
1743.00	0.4225
1744.00	0.4228
1745.00	0.4232
1746.00	0.4236
1747.00	0.4239
1748.00	0.4244
1749.00	0.4248
1750.00	0.4252
1751.00	0.4256
1752.00	0.4264
1753.00	0.4270
1754.00	0.4276
1755.00	0.4283
1756.00	0.4289
1757.00	0.4292
1758.00	0.4293
1759.00	0.4296
1760.00	0.4298
1761.00	0.4302
1762.00	0.4307
1763.00	0.4314
1764.00	0.4322
1765.00	0.4329
1766.00	0.4333
1767.00	0.4338
1768.00	0.4345
1769.00	0.4350
1770.00	0.4353
1771.00	0.4360
1772.00	0.4363
1773.00	0.4364
1774.00	0.4366
1775.00	0.4372
1776.00	0.4374
1777.00	0.4380
1778.00	0.4387
1779.00	0.4390
1780.00	0.4395
1781.00	0.4401
1782.00	0.4406
1783.00	0.4414
1784.00	0.4421
1785.00	0.4426
1786.00	0.4429
1787.00	0.4432
1788.00	0.4433
1789.00	0.4437
1790.00	0.4439
1791.00	0.4444
1792.00	0.4448
1793.00	0.4453
1794.00	0.4457
1795.00	0.4459
1796.00	0.4464
1797.00	0.4467
1798.00	0.4471
1799.00	0.4473
1800.00	0.4483
1801.00	0.4487
1802.00	0.4493
1803.00	0.4497
1804.00	0.4502
1805.00	0.4504
1806.00	0.4509
1807.00	0.4513
1808.00	0.4520
1809.00	0.4524
1810.00	0.4529
1811.00	0.4532
1812.00	0.4536
1813.00	0.4537
1814.00	0.4540
1815.00	0.4541
1816.00	0.4542
1817.00	0.4544
1818.00	0.4547
1819.00	0.4550
1820.00	0.4551
1821.00	0.4556
1822.00	0.4560
1823.00	0.4564
1824.00	0.4572
1825.00	0.4579
1826.00	0.4584
1827.00	0.4586
1828.00	0.4589
1829.00	0.4587
1830.00	0.4591
1831.00	0.4593
1832.00	0.4596
1833.00	0.4598
1834.00	0.4605
1835.00	0.4605
1836.00	0.4609
1837.00	0.4615
1838.00	0.4621
1839.00	0.4621
1840.00	0.4624
1841.00	0.4625
1842.00	0.4627
1843.00	0.4627
1844.00	0.4630
1845.00	0.4633
1846.00	0.4634
1847.00	0.4632
1848.00	0.4632
1849.00	0.4632
1850.00	0.4637
1851.00	0.4641
1852.00	0.4646
1853.00	0.4652
1854.00	0.4659
1855.00	0.4661
1856.00	0.4664
1857.00	0.4669
1858.00	0.4673
1859.00	0.4676
1860.00	0.4682
1861.00	0.4682
1862.00	0.4684
1863.00	0.4686
1864.00	0.4689
1865.00	0.4691
1866.00	0.4696
1867.00	0.4700
1868.00	0.4702
1869.00	0.4703
1870.00	0.4705
1871.00	0.4708
1872.00	0.4710
1873.00	0.4714
1874.00	0.4718
1875.00	0.4721
1876.00	0.4721
1877.00	0.4724
1878.00	0.4721
1879.00	0.4721
1880.00	0.4723
1881.00	0.4725
1882.00	0.4724
1883.00	0.4729
1884.00	0.4730
1885.00	0.4729
1886.00	0.4729
1887.00	0.4731
1888.00	0.4732
1889.00	0.4735
1890.00	0.4740
1891.00	0.4740
1892.00	0.4742
1893.00	0.4746
1894.00	0.4748
1895.00	0.4746
1896.00	0.4752
1897.00	0.4758
1898.00	0.4762
1899.00	0.4767
1900.00	0.4776
1901.00	0.4781
1902.00	0.4787
1903.00	0.4792
1904.00	0.4797
1905.00	0.4801
1906.00	0.4799
1907.00	0.4797
1908.00	0.4797
1909.00	0.4794
1910.00	0.4794
1911.00	0.4798
1912.00	0.4797
1913.00	0.4795
1914.00	0.4797
1915.00	0.4796
1916.00	0.4796
1917.00	0.4800
1918.00	0.4801
1919.00	0.4802
1920.00	0.4802
1921.00	0.4803
1922.00	0.4806
1923.00	0.4811
1924.00	0.4814
1925.00	0.4819
1926.00	0.4823
1927.00	0.4823
1928.00	0.4823
1929.00	0.4824
1930.00	0.4826
1931.00	0.4828
1932.00	0.4831
1933.00	0.4833
1934.00	0.4833
1935.00	0.4832
1936.00	0.4831
1937.00	0.4833
1938.00	0.4835
1939.00	0.4838
1940.00	0.4837
1941.00	0.4840
1942.00	0.4841
1943.00	0.4839
1944.00	0.4838
1945.00	0.4845
1946.00	0.4848
1947.00	0.4850
1948.00	0.4851
1949.00	0.4852
1950.00	0.4851
1951.00	0.4846
1952.00	0.4843
1953.00	0.4846
1954.00	0.4848
1955.00	0.4851
1956.00	0.4857
1957.00	0.4863
1958.00	0.4864
1959.00	0.4866
1960.00	0.4868
1961.00	0.4867
1962.00	0.4870
1963.00	0.4871
1964.00	0.4871
1965.00	0.4873
1966.00	0.4874
1967.00	0.4875
1968.00	0.4876
1969.00	0.4880
1970.00	0.4882
1971.00	0.4883
1972.00	0.4880
1973.00	0.4879
1974.00	0.4878
1975.00	0.4880
1976.00	0.4884
1977.00	0.4889
1978.00	0.4892
1979.00	0.4893
1980.00	0.4892
1981.00	0.4885
1982.00	0.4881
1983.00	0.4883
1984.00	0.4885
1985.00	0.4886
1986.00	0.4892
1987.00	0.4894
1988.00	0.4895
1989.00	0.4896
1990.00	0.4895
1991.00	0.4897
1992.00	0.4900
1993.00	0.4899
1994.00	0.4898
1995.00	0.4899
1996.00	0.4900
1997.00	0.4903
1998.00	0.4905
1999.00	0.4907
2000.00	0.4909
2001.00	0.4910
2002.00	0.4909
2003.00	0.4908
2004.00	0.4906
2005.00	0.4906
2006.00	0.4908
2007.00	0.4909
2008.00	0.4909
2009.00	0.4911
2010.00	0.4909
2011.00	0.4908
2012.00	0.4906
2013.00	0.4911
2014.00	0.4913
2015.00	0.4915
2016.00	0.4912
2017.00	0.4913
2018.00	0.4911
2019.00	0.4910
2020.00	0.4911
2021.00	0.4916
2022.00	0.4916
2023.00	0.4917
2024.00	0.4918
2025.00	0.4918
2026.00	0.4918
2027.00	0.4917
2028.00	0.4912
2029.00	0.4915
2030.00	0.4916
2031.00	0.4918
2032.00	0.4924
2033.00	0.4929
2034.00	0.4929
2035.00	0.4931
2036.00	0.4930
2037.00	0.4925
2038.00	0.4923
2039.00	0.4920
2040.00	0.4916
2041.00	0.4917
2042.00	0.4917
2043.00	0.4915
2044.00	0.4918
2045.00	0.4924
2046.00	0.4928
2047.00	0.4930
2048.00	0.4928
2049.00	0.4931
2050.00	0.4928
2051.00	0.4928
2052.00	0.4937
2053.00	0.4946
2054.00	0.4945
2055.00	0.4950
2056.00	0.4952
2057.00	0.4946
2058.00	0.4947
2059.00	0.4950
2060.00	0.4950
2061.00	0.4951
2062.00	0.4954
2063.00	0.4956
2064.00	0.4957
2065.00	0.4957
2066.00	0.4956
2067.00	0.4959
2068.00	0.4960
2069.00	0.4960
2070.00	0.4956
2071.00	0.4956
2072.00	0.4949
2073.00	0.4947
2074.00	0.4944
2075.00	0.4943
2076.00	0.4942
2077.00	0.4944
2078.00	0.4944
2079.00	0.4946
2080.00	0.4952
2081.00	0.4950
2082.00	0.4949
2083.00	0.4950
2084.00	0.4951
2085.00	0.4952
2086.00	0.4957
2087.00	0.4957
2088.00	0.4956
2089.00	0.4949
2090.00	0.4947
2091.00	0.4945
2092.00	0.4947
2093.00	0.4947
2094.00	0.4955
2095.00	0.4955
2096.00	0.4949
2097.00	0.4948
2098.00	0.4952
2099.00	0.4952
2100.00	0.4952
2101.00	0.4956
2102.00	0.4954
2103.00	0.4951
2104.00	0.4948
2105.00	0.4944
2106.00	0.4944
2107.00	0.4946
2108.00	0.4947
2109.00	0.4951
2110.00	0.4949
2111.00	0.4948
2112.00	0.4950
2113.00	0.4946
2114.00	0.4941
2115.00	0.4942
2116.00	0.4940
2117.00	0.4939
2118.00	0.4942
2119.00	0.4941
2120.00	0.4942
2121.00	0.4944
2122.00	0.4947
2123.00	0.4944
2124.00	0.4947
2125.00	0.4944
2126.00	0.4943
2127.00	0.4939
2128.00	0.4941
2129.00	0.4939
2130.00	0.4942
2131.00	0.4941
2132.00	0.4944
2133.00	0.4943
2134.00	0.4945
2135.00	0.4945
2136.00	0.4946
2137.00	0.4944
2138.00	0.4945
2139.00	0.4946
2140.00	0.4945
2141.00	0.4946
2142.00	0.4946
2143.00	0.4945
2144.00	0.4944
2145.00	0.4945
2146.00	0.4943
2147.00	0.4933
2148.00	0.4934
2149.00	0.4932
2150.00	0.4929
2151.00	0.4928
2152.00	0.4934
2153.00	0.4927
2154.00	0.4924
2155.00	0.4926
2156.00	0.4926
2157.00	0.4929
2158.00	0.4933
2159.00	0.4935
2160.00	0.4929
2161.00	0.4928
2162.00	0.4921
2163.00	0.4917
2164.00	0.4916
2165.00	0.4923
2166.00	0.4922
2167.00	0.4927
2168.00	0.4928
2169.00	0.4923
2170.00	0.4920
2171.00	0.4920
2172.00	0.4923
2173.00	0.4923
2174.00	0.4926
2175.00	0.4928
2176.00	0.4929
2177.00	0.4924
2178.00	0.4923
2179.00	0.4925
2180.00	0.4922
2181.00	0.4920
2182.00	0.4918
2183.00	0.4921
2184.00	0.4920
2185.00	0.4919
2186.00	0.4916
2187.00	0.4920
2188.00	0.4916
2189.00	0.4911
2190.00	0.4907
2191.00	0.4909
2192.00	0.4903
2193.00	0.4905
2194.00	0.4906
2195.00	0.4911
2196.00	0.4910
2197.00	0.4915
2198.00	0.4910
2199.00	0.4914
2200.00	0.4910
2201.00	0.4913
2202.00	0.4911
2203.00	0.4916
2204.00	0.4908
2205.00	0.4910
2206.00	0.4910
2207.00	0.4903
2208.00	0.4900
2209.00	0.4903
2210.00	0.4903
2211.00	0.4893
2212.00	0.4895
2213.00	0.4891
2214.00	0.4893
2215.00	0.4895
2216.00	0.4900
2217.00	0.4901
2218.00	0.4904
2219.00	0.4906
2220.00	0.4899
2221.00	0.4895
2222.00	0.4893
2223.00	0.4890
2224.00	0.4884
2225.00	0.4884
2226.00	0.4887
2227.00	0.4884
2228.00	0.4880
2229.00	0.4873
2230.00	0.4872
2231.00	0.4871
2232.00	0.4870
2233.00	0.4869
2234.00	0.4872
2235.00	0.4873
2236.00	0.4871
2237.00	0.4869
2238.00	0.4867
2239.00	0.4865
2240.00	0.4861
2241.00	0.4857
2242.00	0.4856
2243.00	0.4863
2244.00	0.4861
2245.00	0.4863
2246.00	0.4864
2247.00	0.4859
2248.00	0.4854
2249.00	0.4858
2250.00	0.4853
2251.00	0.4846
2252.00	0.4849
2253.00	0.4851
2254.00	0.4848
2255.00	0.4849
2256.00	0.4854
2257.00	0.4857
2258.00	0.4855
2259.00	0.4853
2260.00	0.4854
2261.00	0.4853
2262.00	0.4849
2263.00	0.4851
2264.00	0.4852
2265.00	0.4850
2266.00	0.4848
2267.00	0.4848
2268.00	0.4844
2269.00	0.4843
2270.00	0.4841
2271.00	0.4839
2272.00	0.4839
2273.00	0.4833
2274.00	0.4826
2275.00	0.4822
2276.00	0.4820
2277.00	0.4818
2278.00	0.4820
2279.00	0.4821
2280.00	0.4822
2281.00	0.4822
2282.00	0.4820
2283.00	0.4820
2284.00	0.4821
2285.00	0.4823
2286.00	0.4820
2287.00	0.4819
2288.00	0.4818
2289.00	0.4817
2290.00	0.4818
2291.00	0.4819
2292.00	0.4819
2293.00	0.4818
2294.00	0.4818
2295.00	0.4814
2296.00	0.4811
2297.00	0.4811
2298.00	0.4807
2299.00	0.4804
2300.00	0.4800
2301.00	0.4805
2302.00	0.4804
2303.00	0.4802
2304.00	0.4800
2305.00	0.4806
2306.00	0.4799
2307.00	0.4802
2308.00	0.4803
2309.00	0.4803
2310.00	0.4795
2311.00	0.4797
2312.00	0.4794
2313.00	0.4792
2314.00	0.4792
2315.00	0.4795
2316.00	0.4791
2317.00	0.4789
2318.00	0.4786
2319.00	0.4784
2320.00	0.4782
2321.00	0.4779
2322.00	0.4778
2323.00	0.4780
2324.00	0.4782
2325.00	0.4783
2326.00	0.4785
2327.00	0.4783
2328.00	0.4778
2329.00	0.4774
2330.00	0.4771
2331.00	0.4767
2332.00	0.4768
2333.00	0.4769
2334.00	0.4768
2335.00	0.4770
2336.00	0.4768
2337.00	0.4762
2338.00	0.4758
2339.00	0.4753
2340.00	0.4747
2341.00	0.4749
2342.00	0.4756
2343.00	0.4755
2344.00	0.4755
2345.00	0.4755
2346.00	0.4751
2347.00	0.4747
2348.00	0.4747
2349.00	0.4745
2350.00	0.4744
2351.00	0.4742
2352.00	0.4743
2353.00	0.4742
2354.00	0.4745
2355.00	0.4744
2356.00	0.4744
2357.00	0.4740
2358.00	0.4739
2359.00	0.4739
2360.00	0.4737
2361.00	0.4738
2362.00	0.4735
2363.00	0.4737
2364.00	0.4732
2365.00	0.4730
2366.00	0.4732
2367.00	0.4731
2368.00	0.4725
2369.00	0.4723
2370.00	0.4724
2371.00	0.4720
2372.00	0.4719
2373.00	0.4723
2374.00	0.4720
2375.00	0.4723
2376.00	0.4719
2377.00	0.4717
2378.00	0.4712
2379.00	0.4714
2380.00	0.4709
2381.00	0.4704
2382.00	0.4700
2383.00	0.4701
2384.00	0.4693
2385.00	0.4691
2386.00	0.4694
2387.00	0.4694
2388.00	0.4692
2389.00	0.4696
2390.00	0.4694
2391.00	0.4697
2392.00	0.4696
2393.00	0.4694
2394.00	0.4687
2395.00	0.4689
2396.00	0.4683
2397.00	0.4682
2398.00	0.4679
2399.00	0.4681
2400.00	0.4674
2401.00	0.4675
2402.00	0.4673
2403.00	0.4674
2404.00	0.4671
2405.00	0.4673
2406.00	0.4675
2407.00	0.4673
2408.00	0.4675
2409.00	0.4678
2410.00	0.4677
2411.00	0.4669
2412.00	0.4669
2413.00	0.4662
2414.00	0.4657
2415.00	0.4651
2416.00	0.4653
2417.00	0.4652
2418.00	0.4654
2419.00	0.4655
2420.00	0.4656
2421.00	0.4654
2422.00	0.4655
2423.00	0.4650
2424.00	0.4650
2425.00	0.4651
2426.00	0.4652
2427.00	0.4650
2428.00	0.4654
2429.00	0.4648
2430.00	0.4650
2431.00	0.4644
2432.00	0.4641
2433.00	0.4637
2434.00	0.4645
2435.00	0.4645
2436.00	0.4644
2437.00	0.4646
2438.00	0.4645
2439.00	0.4641
2440.00	0.4639
2441.00	0.4640
2442.00	0.4636
2443.00	0.4633
2444.00	0.4626
2445.00	0.4618
2446.00	0.4619
2447.00	0.4620
2448.00	0.4625
2449.00	0.4624
2450.00	0.4621
2451.00	0.4621
2452.00	0.4621
2453.00	0.4618
2454.00	0.4619
2455.00	0.4625
2456.00	0.4620
2457.00	0.4615
2458.00	0.4612
2459.00	0.4614
2460.00	0.4607
2461.00	0.4610
2462.00	0.4609
2463.00	0.4615
2464.00	0.4608
2465.00	0.4606
2466.00	0.4603
2467.00	0.4595
2468.00	0.4585
2469.00	0.4590
2470.00	0.4591
2471.00	0.4591
2472.00	0.4590
2473.00	0.4587
2474.00	0.4579
2475.00	0.4578
2476.00	0.4574
2477.00	0.4579
2478.00	0.4582
2479.00	0.4581
2480.00	0.4577
2481.00	0.4576
2482.00	0.4572
2483.00	0.4567
2484.00	0.4568
2485.00	0.4573
2486.00	0.4571
2487.00	0.4564
2488.00	0.4564
2489.00	0.4569
2490.00	0.4561
2491.00	0.4559
2492.00	0.4566
2493.00	0.4563
2494.00	0.4555
2495.00	0.4553
2496.00	0.4556
2497.00	0.4548
2498.00	0.4551
2499.00	0.4540
2500.00	0.4533
2501.00	0.4528
2502.00	0.4518
2503.00	0.4512
2504.00	0.4506
2505.00	0.4505
2506.00	0.4504
2507.00	0.4500
2508.00	0.4497
2509.00	0.4494
2510.00	0.4493
2511.00	0.4490
2512.00	0.4488
2513.00	0.4486
2514.00	0.4484
2515.00	0.4482
2516.00	0.4484
2517.00	0.4483
2518.00	0.4482
2519.00	0.4482
2520.00	0.4480
2521.00	0.4481
2522.00	0.4481
2523.00	0.4479
2524.00	0.4479
2525.00	0.4475
2526.00	0.4475
2527.00	0.4475
2528.00	0.4475
2529.00	0.4477
2530.00	0.4477
2531.00	0.4477
2532.00	0.4477
2533.00	0.4474
2534.00	0.4474
2535.00	0.4470
2536.00	0.4463
2537.00	0.4458
2538.00	0.4454
2539.00	0.4456
2540.00	0.4455
2541.00	0.4453
2542.00	0.4453
2543.00	0.4454
2544.00	0.4456
2545.00	0.4454
2546.00	0.4452
2547.00	0.4455
2548.00	0.4453
2549.00	0.4454
2550.00	0.4451
2551.00	0.4451
2552.00	0.4449
2553.00	0.4442
2554.00	0.4436
2555.00	0.4435
2556.00	0.4433
2557.00	0.4431
2558.00	0.4423
2559.00	0.4420
2560.00	0.4425
2561.00	0.4425
2562.00	0.4422
2563.00	0.4420
2564.00	0.4418
2565.00	0.4422
2566.00	0.4427
2567.00	0.4425
2568.00	0.4425
2569.00	0.4426
2570.00	0.4423
2571.00	0.4427
2572.00	0.4421
2573.00	0.4416
2574.00	0.4410
2575.00	0.4411
2576.00	0.4407
2577.00	0.4403
2578.00	0.4397
2579.00	0.4397
2580.00	0.4396
2581.00	0.4394
2582.00	0.4385
2583.00	0.4381
2584.00	0.4378
2585.00	0.4379
2586.00	0.4376
2587.00	0.4380
2588.00	0.4383
2589.00	0.4392
2590.00	0.4393
2591.00	0.4399
2592.00	0.4396
2593.00	0.4392
2594.00	0.4380
2595.00	0.4377
2596.00	0.4364
2597.00	0.4360
2598.00	0.4352
2599.00	0.4351
2600.00	0.4352
2601.00	0.4356
2602.00	0.4347
2603.00	0.4345
2604.00	0.4347
2605.00	0.4346
2606.00	0.4352
2607.00	0.4357
2608.00	0.4356
2609.00	0.4359
2610.00	0.4374
2611.00	0.4374
2612.00	0.4376
2613.00	0.4377
2614.00	0.4373
2615.00	0.4374
2616.00	0.4374
2617.00	0.4361
2618.00	0.4360
2619.00	0.4352
2620.00	0.4341
2621.00	0.4332
2622.00	0.4328
2623.00	0.4325
2624.00	0.4325
2625.00	0.4324
2626.00	0.4329
2627.00	0.4328
2628.00	0.4334
2629.00	0.4333
2630.00	0.4337
2631.00	0.4338
2632.00	0.4336
2633.00	0.4333
2634.00	0.4333
2635.00	0.4331
2636.00	0.4329
2637.00	0.4330
2638.00	0.4325
2639.00	0.4323
2640.00	0.4320
2641.00	0.4317
2642.00	0.4314
2643.00	0.4314
2644.00	0.4307
2645.00	0.4304
2646.00	0.4301
2647.00	0.4299
2648.00	0.4297
2649.00	0.4299
2650.00	0.4293
2651.00	0.4289
2652.00	0.4284
2653.00	0.4282
2654.00	0.4272
2655.00	0.4267
2656.00	0.4253
2657.00	0.4247
2658.00	0.4243
2659.00	0.4239
2660.00	0.4238
2661.00	0.4243
2662.00	0.4243
2663.00	0.4249
2664.00	0.4252
2665.00	0.4262
2666.00	0.4276
2667.00	0.4290
2668.00	0.4293
2669.00	0.4299
2670.00	0.4319
2671.00	0.4342
2672.00	0.4348
2673.00	0.4349
2674.00	0.4363
2675.00	0.4366
2676.00	0.4380
2677.00	0.4370
2678.00	0.4352
2679.00	0.4353
2680.00	0.4353
2681.00	0.4352
2682.00	0.4372
2683.00	0.4380
2684.00	0.4387
2685.00	0.4401
2686.00	0.4409
2687.00	0.4438
2688.00	0.4436
2689.00	0.4448
2690.00	0.4461
2691.00	0.4489
2692.00	0.4532
2693.00	0.4559
2694.00	0.4575
2695.00	0.4626
2696.00	0.4638
2697.00	0.4698
2698.00	0.4749
2699.00	0.4793
2700.00	0.4869
2701.00	0.4877
2702.00	0.4910
2703.00	0.4958
2704.00	0.5004
2705.00	0.5059
2706.00	0.5094
2707.00	0.5132
2708.00	0.5149
2709.00	0.5164
2710.00	0.5199
2711.00	0.5223
2712.00	0.5263
2713.00	0.5326
2714.00	0.5375
2715.00	0.5409
2716.00	0.5471
2717.00	0.5477
2718.00	0.5495
2719.00	0.5514
2720.00	0.5547
2721.00	0.5546
2722.00	0.5567
2723.00	0.5564
2724.00	0.5546
2725.00	0.5524
2726.00	0.5520
2727.00	0.5487
2728.00	0.5504
2729.00	0.5504
2730.00	0.5510
2731.00	0.5479
2732.00	0.5467
2733.00	0.5470
2734.00	0.5452
2735.00	0.5403
2736.00	0.5382
2737.00	0.5352
2738.00	0.5300
2739.00	0.5257
2740.00	0.5221
2741.00	0.5206
2742.00	0.5174
2743.00	0.5134
2744.00	0.5099
2745.00	0.5089
2746.00	0.5078
2747.00	0.5026
2748.00	0.5002
2749.00	0.4992
2750.00	0.4967
2751.00	0.4913
2752.00	0.4840
2753.00	0.4778
2754.00	0.4768
2755.00	0.4722
2756.00	0.4690
2757.00	0.4678
2758.00	0.4681
2759.00	0.4638
2760.00	0.4606
2761.00	0.4584
2762.00	0.4576
2763.00	0.4570
2764.00	0.4583
2765.00	0.4558
2766.00	0.4534
2767.00	0.4506
2768.00	0.4473
2769.00	0.4436
2770.00	0.4416
2771.00	0.4403
2772.00	0.4376
2773.00	0.4359
2774.00	0.4339
2775.00	0.4328
2776.00	0.4309
2777.00	0.4309
2778.00	0.4287
2779.00	0.4278
2780.00	0.4260
2781.00	0.4242
2782.00	0.4233
2783.00	0.4224
2784.00	0.4210
2785.00	0.4207
2786.00	0.4199
2787.00	0.4192
2788.00	0.4176
2789.00	0.4167
2790.00	0.4158
2791.00	0.4160
2792.00	0.4154
2793.00	0.4149
2794.00	0.4145
2795.00	0.4142
2796.00	0.4139
2797.00	0.4125
2798.00	0.4117
2799.00	0.4111
2800.00	0.4112
2801.00	0.4101
2802.00	0.4093
2803.00	0.4093
2804.00	0.4086
2805.00	0.4075
2806.00	0.4066
2807.00	0.4058
2808.00	0.4055
2809.00	0.4051
2810.00	0.4052
2811.00	0.4042
2812.00	0.4041
2813.00	0.4038
2814.00	0.4036
2815.00	0.4030
2816.00	0.4026
2817.00	0.4023
2818.00	0.4021
2819.00	0.4017
2820.00	0.4015
2821.00	0.4012
2822.00	0.4012
2823.00	0.4008
2824.00	0.4008
2825.00	0.4004
2826.00	0.3999
2827.00	0.4003
2828.00	0.4004
2829.00	0.4000
2830.00	0.3999
2831.00	0.3999
2832.00	0.3995
2833.00	0.3995
2834.00	0.3992
2835.00	0.3989
2836.00	0.3989
2837.00	0.3987
2838.00	0.3984
2839.00	0.3981
2840.00	0.3981
2841.00	0.3981
2842.00	0.3980
2843.00	0.3978
2844.00	0.3977
2845.00	0.3977
2846.00	0.3978
2847.00	0.3977
2848.00	0.3977
2849.00	0.3975
2850.00	0.3974
2851.00	0.3971
2852.00	0.3970
2853.00	0.3968
2854.00	0.3968
2855.00	0.3964
2856.00	0.3962
2857.00	0.3959
2858.00	0.3957
2859.00	0.3956
2860.00	0.3956
2861.00	0.3958
2862.00	0.3959
2863.00	0.3957
2864.00	0.3955
2865.00	0.3953
2866.00	0.3955
2867.00	0.3956
2868.00	0.3955
2869.00	0.3952
2870.00	0.3951
2871.00	0.3950
2872.00	0.3946
2873.00	0.3944
2874.00	0.3945
2875.00	0.3944
2876.00	0.3944
2877.00	0.3941
2878.00	0.3940
2879.00	0.3941
2880.00	0.3938
2881.00	0.3939
2882.00	0.3937
2883.00	0.3934
2884.00	0.3930
2885.00	0.3928
2886.00	0.3927
2887.00	0.3924
2888.00	0.3922
2889.00	0.3920
2890.00	0.3917
2891.00	0.3915
2892.00	0.3912
2893.00	0.3911
2894.00	0.3914
2895.00	0.3914
2896.00	0.3912
2897.00	0.3910
2898.00	0.3910
2899.00	0.3909
2900.00	0.3907
2901.00	0.3905
2902.00	0.3904
2903.00	0.3904
2904.00	0.3904
2905.00	0.3898
2906.00	0.3897
2907.00	0.3896
2908.00	0.3894
2909.00	0.3892
2910.00	0.3891
2911.00	0.3890
2912.00	0.3889
2913.00	0.3890
2914.00	0.3885
2915.00	0.3879
2916.00	0.3879
2917.00	0.3879
2918.00	0.3876
2919.00	0.3877
2920.00	0.3879
2921.00	0.3875
2922.00	0.3875
2923.00	0.3874
2924.00	0.3872
2925.00	0.3870
2926.00	0.3871
2927.00	0.3872
2928.00	0.3873
2929.00	0.3872
2930.00	0.3867
2931.00	0.3864
2932.00	0.3864
2933.00	0.3863
2934.00	0.3866
2935.00	0.3864
2936.00	0.3865
2937.00	0.3864
2938.00	0.3864
2939.00	0.3859
2940.00	0.3859
2941.00	0.3860
2942.00	0.3856
2943.00	0.3857
2944.00	0.3854
2945.00	0.3851
2946.00	0.3847
2947.00	0.3847
2948.00	0.3842
2949.00	0.3835
2950.00	0.3836
2951.00	0.3835
2952.00	0.3834
2953.00	0.3835
2954.00	0.3831
2955.00	0.3835
2956.00	0.3835
2957.00	0.3835
2958.00	0.3831
2959.00	0.3834
2960.00	0.3836
2961.00	0.3832
2962.00	0.3835
2963.00	0.3834
2964.00	0.3832
2965.00	0.3829
2966.00	0.3828
2967.00	0.3826
2968.00	0.3828
2969.00	0.3828
2970.00	0.3826
2971.00	0.3824
2972.00	0.3826
2973.00	0.3823
2974.00	0.3823
2975.00	0.3821
2976.00	0.3819
2977.00	0.3814
2978.00	0.3809
2979.00	0.3807
2980.00	0.3805
2981.00	0.3808
2982.00	0.3808
2983.00	0.3806
2984.00	0.3804
2985.00	0.3802
2986.00	0.3802
2987.00	0.3804
2988.00	0.3802
2989.00	0.3806
2990.00	0.3802
2991.00	0.3806
2992.00	0.3801
2993.00	0.3799
2994.00	0.3797
2995.00	0.3797
2996.00	0.3803
2997.00	0.3806
2998.00	0.3810
2999.00	0.3818
3000.00	0.3819
3001.00	0.3817
3002.00	0.3820
3003.00	0.3820
3004.00	0.3822
3005.00	0.3822
3006.00	0.3823
3007.00	0.3824
3008.00	0.3826
3009.00	0.3826
3010.00	0.3823
3011.00	0.3822
3012.00	0.3821
3013.00	0.3816
3014.00	0.3815
3015.00	0.3815
3016.00	0.3814
3017.00	0.3814
3018.00	0.3812
3019.00	0.3811
3020.00	0.3809
3021.00	0.3808
3022.00	0.3806
3023.00	0.3806
3024.00	0.3806
3025.00	0.3806
3026.00	0.3806
3027.00	0.3806
3028.00	0.3806
3029.00	0.3805
3030.00	0.3804
3031.00	0.3805
3032.00	0.3805
3033.00	0.3803
3034.00	0.3801
3035.00	0.3798
3036.00	0.3796
3037.00	0.3797
3038.00	0.3794
3039.00	0.3794
3040.00	0.3790
3041.00	0.3788
3042.00	0.3784
3043.00	0.3783
3044.00	0.3781
3045.00	0.3779
3046.00	0.3777
3047.00	0.3777
3048.00	0.3775
3049.00	0.3769
3050.00	0.3767
3051.00	0.3768
3052.00	0.3768
3053.00	0.3768
3054.00	0.3766
3055.00	0.3766
3056.00	0.3762
3057.00	0.3761
3058.00	0.3761
3059.00	0.3762
3060.00	0.3761
3061.00	0.3761
3062.00	0.3760
3063.00	0.3760
3064.00	0.3758
3065.00	0.3757
3066.00	0.3760
3067.00	0.3759
3068.00	0.3757
3069.00	0.3755
3070.00	0.3756
3071.00	0.3754
3072.00	0.3752
3073.00	0.3752
3074.00	0.3754
3075.00	0.3751
3076.00	0.3752
3077.00	0.3751
3078.00	0.3749
3079.00	0.3746
3080.00	0.3745
3081.00	0.3743
3082.00	0.3738
3083.00	0.3736
3084.00	0.3737
3085.00	0.3736
3086.00	0.3735
3087.00	0.3733
3088.00	0.3731
3089.00	0.3730
3090.00	0.3726
3091.00	0.3724
3092.00	0.3724
3093.00	0.3720
3094.00	0.3718
3095.00	0.3714
3096.00	0.3713
3097.00	0.3711
3098.00	0.3708
3099.00	0.3708
3100.00	0.3706
3101.00	0.3707
3102.00	0.3705
3103.00	0.3704
3104.00	0.3704
3105.00	0.3704
3106.00	0.3704
3107.00	0.3705
3108.00	0.3700
3109.00	0.3700
3110.00	0.3699
3111.00	0.3698
3112.00	0.3700
3113.00	0.3700
3114.00	0.3700
3115.00	0.3701
3116.00	0.3700
3117.00	0.3696
3118.00	0.3688
3119.00	0.3686
3120.00	0.3684
3121.00	0.3680
3122.00	0.3678
3123.00	0.3677
3124.00	0.3674
3125.00	0.3673
3126.00	0.3671
3127.00	0.3670
3128.00	0.3668
3129.00	0.3663
3130.00	0.3663
3131.00	0.3662
3132.00	0.3658
3133.00	0.3659
3134.00	0.3658
3135.00	0.3658
3136.00	0.3656
3137.00	0.3658
3138.00	0.3657
3139.00	0.3655
3140.00	0.3655
3141.00	0.3655
3142.00	0.3653
3143.00	0.3653
3144.00	0.3653
3145.00	0.3655
3146.00	0.3652
3147.00	0.3648
3148.00	0.3646
3149.00	0.3648
3150.00	0.3644
3151.00	0.3643
3152.00	0.3643
3153.00	0.3638
3154.00	0.3636
3155.00	0.3633
3156.00	0.3629
3157.00	0.3625
3158.00	0.3623
3159.00	0.3625
3160.00	0.3616
3161.00	0.3614
3162.00	0.3607
3163.00	0.3607
3164.00	0.3606
3165.00	0.3609
3166.00	0.3604
3167.00	0.3608
3168.00	0.3608
3169.00	0.3609
3170.00	0.3611
3171.00	0.3606
3172.00	0.3609
3173.00	0.3612
3174.00	0.3612
3175.00	0.3607
3176.00	0.3606
3177.00	0.3606
3178.00	0.3604
3179.00	0.3601
3180.00	0.3597
3181.00	0.3596
3182.00	0.3590
3183.00	0.3597
3184.00	0.3594
3185.00	0.3593
3186.00	0.3591
3187.00	0.3592
3188.00	0.3592
3189.00	0.3591
3190.00	0.3589
3191.00	0.3594
3192.00	0.3596
3193.00	0.3593
3194.00	0.3597
3195.00	0.3599
3196.00	0.3600
3197.00	0.3597
3198.00	0.3597
3199.00	0.3595
3200.00	0.3589
3201.00	0.3585
3202.00	0.3570
3203.00	0.3568
3204.00	0.3561
3205.00	0.3554
3206.00	0.3549
3207.00	0.3544
3208.00	0.3533
3209.00	0.3535
3210.00	0.3530
3211.00	0.3526
3212.00	0.3520
3213.00	0.3526
3214.00	0.3528
3215.00	0.3510
3216.00	0.3502
3217.00	0.3501
3218.00	0.3506
3219.00	0.3507
3220.00	0.3509
3221.00	0.3512
3222.00	0.3514
3223.00	0.3517
3224.00	0.3522
3225.00	0.3523
3226.00	0.3517
3227.00	0.3513
3228.00	0.3523
3229.00	0.3526
3230.00	0.3515
3231.00	0.3525
3232.00	0.3536
3233.00	0.3547
3234.00	0.3543
3235.00	0.3527
3236.00	0.3538
3237.00	0.3539
3238.00	0.3541
3239.00	0.3550
3240.00	0.3530
3241.00	0.3510
3242.00	0.3495
3243.00	0.3507
3244.00	0.3523
3245.00	0.3501
3246.00	0.3497
3247.00	0.3504
3248.00	0.3500
3249.00	0.3492
3250.00	0.3495
3251.00	0.3501
3252.00	0.3500
3253.00	0.3507
3254.00	0.3497
3255.00	0.3484
3256.00	0.3474
3257.00	0.3503
3258.00	0.3513
3259.00	0.3532
3260.00	0.3509
3261.00	0.3493
3262.00	0.3484
3263.00	0.3453
3264.00	0.3454
3265.00	0.3446
3266.00	0.3447
3267.00	0.3452
3268.00	0.3417
3269.00	0.3419
3270.00	0.3395
3271.00	0.3385
3272.00	0.3378
3273.00	0.3370
3274.00	0.3366
3275.00	0.3366
3276.00	0.3366
3277.00	0.3363
3278.00	0.3392
3279.00	0.3415
3280.00	0.3429
3281.00	0.3407
3282.00	0.3419
3283.00	0.3417
3284.00	0.3402
3285.00	0.3429
3286.00	0.3455
3287.00	0.3469
3288.00	0.3469
3289.00	0.3489
3290.00	0.3497
3291.00	0.3472
3292.00	0.3497
3293.00	0.3508
3294.00	0.3542
3295.00	0.3537
3296.00	0.3550
3297.00	0.3585
3298.00	0.3620
3299.00	0.3629
3300.00	0.3657
