"RawData - P3h-Doped F4tcnq_THF-10mmol"
"Wavelength nm.","Abs."
300.00, 
301.00, 
302.00, 
303.00, 
304.00, 
305.00, 
306.00, 
307.00, 
308.00, 
309.00, 
310.00, 
311.00, 
312.00, 
313.00, 
314.00, 
315.00, 
316.00, 
317.00, 
318.00, 
319.00, 
320.00, 
321.00, 
322.00, 
323.00, 
324.00, 
325.00, 
326.00, 
327.00, 
328.00, 
329.00, 
330.00, 
331.00, 
332.00, 
333.00, 
334.00, 
335.00, 
336.00, 
337.00, 
338.00, 
339.00, 
340.00, 
341.00, 
342.00, 
343.00, 
344.00, 
345.00, 
346.00, 
347.00, 
348.00, 
349.00, 
350.00, 
351.00, 
352.00, 
353.00, 
354.00, 
355.00, 
356.00, 
357.00, 
358.00, 
359.00, 
360.00, 
361.00, 
362.00, 
363.00, 
364.00, 
365.00, 
366.00, 
367.00, 
368.00, 
369.00, 
370.00, 
371.00, 
372.00, 
373.00, 
374.00, 
375.00, 
376.00, 
377.00, 
378.00, 
379.00, 
380.00, 
381.00, 
382.00, 
383.00, 
384.00, 
385.00, 
386.00, 
387.00, 
388.00, 
389.00, 
390.00, 
391.00, 
392.00, 
393.00, 
394.00, 
395.00, 
396.00, 
397.00, 
398.00, 
399.00, 
400.00, 
401.00, 
402.00, 
403.00, 
404.00, 
405.00, 
406.00, 
407.00, 
408.00, 
409.00, 
410.00, 
411.00, 
412.00, 
413.00, 
414.00, 
415.00, 
416.00, 
417.00, 
418.00, 
419.00, 
420.00, 
421.00, 
422.00, 
423.00, 
424.00, 
425.00, 
426.00, 
427.00, 
428.00, 
429.00, 
430.00, 
431.00, 
432.00, 
433.00, 
434.00, 
435.00, 
436.00, 
437.00, 
438.00, 
439.00, 
440.00, 
441.00, 
442.00, 
443.00, 
444.00, 
445.00, 
446.00, 
447.00, 
448.00, 
449.00, 
450.00, 
451.00, 
452.00, 
453.00, 
454.00, 
455.00, 
456.00, 
457.00, 
458.00, 
459.00, 
460.00, 
461.00, 
462.00, 
463.00, 
464.00, 
465.00, 
466.00, 
467.00, 
468.00, 
469.00, 
470.00, 
471.00, 
472.00, 
473.00, 
474.00, 
475.00, 
476.00, 
477.00, 
478.00, 
479.00, 
480.00, 
481.00, 
482.00, 
483.00, 
484.00, 
485.00, 
486.00, 
487.00, 
488.00, 
489.00, 
490.00, 
491.00, 
492.00, 
493.00, 
494.00, 
495.00, 
496.00, 
497.00, 
498.00, 
499.00, 
500.00, 
501.00, 
502.00, 
503.00, 
504.00, 
505.00, 
506.00, 
507.00, 
508.00, 
509.00, 
510.00, 
511.00, 
512.00, 
513.00, 
514.00, 
515.00, 
516.00, 
517.00, 
518.00, 
519.00, 
520.00, 
521.00, 
522.00, 
523.00, 
524.00, 
525.00, 
526.00, 
527.00, 
528.00, 
529.00, 
530.00, 
531.00, 
532.00, 
533.00, 
534.00, 
535.00, 
536.00, 
537.00, 
538.00, 
539.00, 
540.00, 
541.00, 
542.00, 
543.00, 
544.00, 
545.00, 
546.00, 
547.00, 
548.00, 
549.00, 
550.00, 
551.00, 
552.00, 
553.00, 
554.00, 
555.00, 
556.00, 
557.00, 
558.00, 
559.00, 
560.00, 
561.00, 
562.00, 
563.00, 
564.00, 
565.00, 
566.00, 
567.00, 
568.00, 
569.00, 
570.00, 
571.00, 
572.00, 
573.00, 
574.00, 
575.00, 
576.00, 
577.00, 
578.00, 
579.00, 
580.00, 
581.00, 
582.00, 
583.00, 
584.00, 
585.00, 
586.00, 
587.00, 
588.00, 
589.00, 
590.00, 
591.00, 
592.00, 
593.00, 
594.00, 
595.00, 
596.00, 
597.00, 
598.00, 
599.00, 
600.00, 
601.00, 
602.00, 
603.00, 
604.00, 
605.00, 
606.00, 
607.00, 
608.00, 
609.00, 
610.00, 
611.00, 
612.00, 
613.00, 
614.00, 
615.00, 
616.00, 
617.00, 
618.00, 
619.00, 
620.00, 
621.00, 
622.00, 
623.00, 
624.00, 
625.00, 
626.00, 
627.00, 
628.00, 
629.00, 
630.00, 
631.00, 
632.00, 
633.00, 
634.00, 
635.00, 
636.00, 
637.00, 
638.00, 
639.00, 
640.00, 
641.00, 
642.00, 
643.00, 
644.00, 
645.00, 
646.00, 
647.00, 
648.00, 
649.00, 
650.00, 
651.00, 
652.00, 
653.00, 
654.00, 
655.00, 
656.00, 
657.00, 
658.00, 
659.00, 
660.00, 
661.00, 
662.00, 
663.00, 
664.00, 
665.00, 
666.00, 
667.00, 
668.00, 
669.00, 
670.00, 
671.00, 
672.00, 
673.00, 
674.00, 
675.00, 
676.00, 
677.00, 
678.00, 
679.00, 
680.00, 
681.00, 
682.00, 
683.00, 
684.00, 
685.00, 
686.00, 
687.00, 
688.00, 
689.00, 
690.00, 
691.00, 
692.00, 
693.00, 
694.00, 
695.00, 
696.00, 
697.00, 
698.00, 
699.00, 
700.00, 
701.00, 
702.00, 
703.00, 
704.00, 
705.00, 
706.00, 
707.00, 
708.00, 
709.00, 
710.00, 
711.00, 
712.00, 
713.00, 
714.00, 
715.00, 
716.00, 
717.00, 
718.00, 
719.00, 
720.00, 
721.00, 
722.00, 
723.00, 
724.00, 
725.00, 
726.00, 
727.00, 
728.00, 
729.00, 
730.00, 
731.00, 
732.00, 
733.00, 
734.00, 
735.00, 
736.00, 
737.00, 
738.00, 
739.00, 
740.00, 
741.00, 
742.00, 
743.00, 
744.00, 
745.00, 
746.00, 
747.00, 
748.00, 
749.00, 
750.00, 
751.00, 
752.00, 
753.00, 
754.00, 
755.00, 
756.00, 
757.00, 
758.00, 
759.00, 
760.00, 
761.00, 
762.00, 
763.00, 
764.00, 
765.00, 
766.00, 
767.00, 
768.00, 
769.00, 
770.00, 
771.00, 
772.00, 
773.00, 
774.00, 
775.00, 
776.00, 
777.00, 
778.00, 
779.00, 
780.00, 
781.00, 
782.00, 
783.00, 
784.00, 
785.00, 
786.00, 
787.00, 
788.00, 
789.00, 
790.00, 
791.00, 
792.00, 
793.00, 
794.00, 
795.00, 
796.00, 
797.00, 
798.00, 
799.00, 
800.00, 
801.00, 
802.00, 
803.00, 
804.00, 
805.00, 
806.00, 
807.00, 
808.00, 
809.00, 
810.00, 
811.00, 
812.00, 
813.00, 
814.00, 
815.00, 
816.00, 
817.00, 
818.00, 
819.00, 
820.00, 
821.00, 
822.00, 
823.00, 
824.00, 
825.00, 
826.00, 
827.00, 
828.00, 
829.00, 
830.00, 
831.00, 
832.00, 
833.00, 
834.00, 
835.00, 
836.00, 
837.00, 
838.00, 
839.00, 
840.00, 
841.00, 
842.00, 
843.00, 
844.00, 
845.00, 
846.00, 
847.00, 
848.00, 
849.00, 
850.00, 
851.00, 
852.00, 
853.00, 
854.00, 
855.00, 
856.00, 
857.00, 
858.00, 
859.00, 
860.00, 
861.00, 
862.00, 
863.00, 
864.00, 
865.00, 
866.00, 
867.00, 
868.00, 
869.00, 
870.00, 
871.00, 
872.00, 
873.00, 
874.00, 
875.00, 
876.00, 
877.00, 
878.00, 
879.00, 
880.00, 
881.00, 
882.00, 
883.00, 
884.00, 
885.00, 
886.00, 
887.00, 
888.00, 
889.00, 
890.00, 
891.00, 
892.00, 
893.00, 
894.00, 
895.00, 
896.00, 
897.00, 
898.00, 
899.00, 
900.00, 
901.00, 
902.00, 
903.00, 
904.00, 
905.00, 
906.00, 
907.00, 
908.00, 
909.00, 
910.00, 
911.00, 
912.00, 
913.00, 
914.00, 
915.00, 
916.00, 
917.00, 
918.00, 
919.00, 
920.00, 
921.00, 
922.00, 
923.00, 
924.00, 
925.00, 
926.00, 
927.00, 
928.00, 
929.00, 
930.00, 
931.00, 
932.00, 
933.00, 
934.00, 
935.00, 
936.00, 
937.00, 
938.00, 
939.00, 
940.00, 
941.00, 
942.00, 
943.00, 
944.00, 
945.00, 
946.00, 
947.00, 
948.00, 
949.00, 
950.00, 
951.00, 
952.00, 
953.00, 
954.00, 
955.00, 
956.00, 
957.00, 
958.00, 
959.00, 
960.00, 
961.00, 
962.00, 
963.00, 
964.00, 
965.00, 
966.00, 
967.00, 
968.00, 
969.00, 
970.00, 
971.00, 
972.00, 
973.00, 
974.00, 
975.00, 
976.00, 
977.00, 
978.00, 
979.00, 
980.00, 
981.00, 
982.00, 
983.00, 
984.00, 
985.00, 
986.00, 
987.00, 
988.00, 
989.00, 
990.00, 
991.00, 
992.00, 
993.00, 
994.00, 
995.00, 
996.00, 
997.00, 
998.00, 
999.00, 
1000.00,0.1502
1001.00, 
1002.00,0.1486
1003.00, 
1004.00,0.1463
1005.00, 
1006.00,0.1440
1007.00, 
1008.00,0.1418
1009.00, 
1010.00,0.1394
1011.00, 
1012.00,0.1373
1013.00, 
1014.00,0.1351
1015.00, 
1016.00,0.1331
1017.00, 
1018.00,0.1310
1019.00, 
1020.00,0.1291
1021.00, 
1022.00,0.1271
1023.00, 
1024.00,0.1252
1025.00, 
1026.00,0.1233
1027.00, 
1028.00,0.1216
1029.00, 
1030.00,0.1197
1031.00, 
1032.00,0.1178
1033.00, 
1034.00,0.1159
1035.00, 
1036.00,0.1143
1037.00, 
1038.00,0.1127
1039.00, 
1040.00,0.1111
1041.00, 
1042.00,0.1096
1043.00, 
1044.00,0.1080
1045.00, 
1046.00,0.1067
1047.00, 
1048.00,0.1053
1049.00, 
1050.00,0.1039
1051.00, 
1052.00,0.1025
1053.00, 
1054.00,0.1012
1055.00, 
1056.00,0.0999
1057.00, 
1058.00,0.0987
1059.00, 
1060.00,0.0975
1061.00, 
1062.00,0.0964
1063.00, 
1064.00,0.0953
1065.00, 
1066.00,0.0943
1067.00, 
1068.00,0.0933
1069.00, 
1070.00,0.0924
1071.00, 
1072.00,0.0915
1073.00, 
1074.00,0.0906
1075.00, 
1076.00,0.0897
1077.00, 
1078.00,0.0889
1079.00, 
1080.00,0.0881
1081.00, 
1082.00,0.0875
1083.00, 
1084.00,0.0868
1085.00, 
1086.00,0.0863
1087.00, 
1088.00,0.0856
1089.00, 
1090.00,0.0850
1091.00, 
1092.00,0.0844
1093.00, 
1094.00,0.0839
1095.00, 
1096.00,0.0833
1097.00, 
1098.00,0.0828
1099.00, 
1100.00,0.0823
1101.00, 
1102.00,0.0819
1103.00, 
1104.00,0.0815
1105.00, 
1106.00,0.0812
1107.00, 
1108.00,0.0808
1109.00, 
1110.00,0.0804
1111.00, 
1112.00,0.0801
1113.00, 
1114.00,0.0798
1115.00, 
1116.00,0.0798
1117.00, 
1118.00,0.0795
1119.00, 
1120.00,0.0792
1121.00, 
1122.00,0.0788
1123.00, 
1124.00,0.0786
1125.00, 
1126.00,0.0783
1127.00, 
1128.00,0.0781
1129.00, 
1130.00,0.0779
1131.00, 
1132.00,0.0777
1133.00, 
1134.00,0.0775
1135.00, 
1136.00,0.0774
1137.00, 
1138.00,0.0773
1139.00, 
1140.00,0.0771
1141.00, 
1142.00,0.0770
1143.00, 
1144.00,0.0769
1145.00, 
1146.00,0.0770
1147.00, 
1148.00,0.0771
1149.00, 
1150.00,0.0772
1151.00, 
1152.00,0.0771
1153.00, 
1154.00,0.0770
1155.00, 
1156.00,0.0770
1157.00, 
1158.00,0.0771
1159.00, 
1160.00,0.0771
1161.00, 
1162.00,0.0771
1163.00, 
1164.00,0.0772
1165.00, 
1166.00,0.0772
1167.00, 
1168.00,0.0773
1169.00, 
1170.00,0.0774
1171.00, 
1172.00,0.0774
1173.00, 
1174.00,0.0775
1175.00, 
1176.00,0.0777
1177.00, 
1178.00,0.0779
1179.00, 
1180.00,0.0777
1181.00, 
1182.00,0.0778
1183.00, 
1184.00,0.0779
1185.00, 
1186.00,0.0783
1187.00, 
1188.00,0.0784
1189.00, 
1190.00,0.0787
1191.00, 
1192.00,0.0789
1193.00, 
1194.00,0.0791
1195.00, 
1196.00,0.0793
1197.00, 
1198.00,0.0795
1199.00, 
1200.00,0.0798
1201.00, 
1202.00,0.0800
1203.00, 
1204.00,0.0803
1205.00, 
1206.00,0.0805
1207.00, 
1208.00,0.0807
1209.00, 
1210.00,0.0808
1211.00, 
1212.00,0.0810
1213.00, 
1214.00,0.0813
1215.00, 
1216.00,0.0818
1217.00, 
1218.00,0.0821
1219.00, 
1220.00,0.0823
1221.00, 
1222.00,0.0825
1223.00, 
1224.00,0.0829
1225.00, 
1226.00,0.0831
1227.00, 
1228.00,0.0835
1229.00, 
1230.00,0.0838
1231.00, 
1232.00,0.0841
1233.00, 
1234.00,0.0845
1235.00, 
1236.00,0.0848
1237.00, 
1238.00,0.0852
1239.00, 
1240.00,0.0855
1241.00, 
1242.00,0.0856
1243.00, 
1244.00,0.0860
1245.00, 
1246.00,0.0865
1247.00, 
1248.00,0.0871
1249.00, 
1250.00,0.0875
1251.00, 
1252.00,0.0879
1253.00, 
1254.00,0.0883
1255.00, 
1256.00,0.0887
1257.00, 
1258.00,0.0891
1259.00, 
1260.00,0.0895
1261.00, 
1262.00,0.0899
1263.00, 
1264.00,0.0903
1265.00, 
1266.00,0.0908
1267.00, 
1268.00,0.0913
1269.00, 
1270.00,0.0921
1271.00, 
1272.00,0.0926
1273.00, 
1274.00,0.0930
1275.00, 
1276.00,0.0932
1277.00, 
1278.00,0.0936
1279.00, 
1280.00,0.0940
1281.00, 
1282.00,0.0945
1283.00, 
1284.00,0.0949
1285.00, 
1286.00,0.0956
1287.00, 
1288.00,0.0962
1289.00, 
1290.00,0.0968
1291.00, 
1292.00,0.0974
1293.00, 
1294.00,0.0980
1295.00, 
1296.00,0.0987
1297.00, 
1298.00,0.0992
1299.00, 
1300.00,0.0997
1301.00, 
1302.00,0.1001
1303.00, 
1304.00,0.1007
1305.00, 
1306.00,0.1012
1307.00, 
1308.00,0.1018
1309.00, 
1310.00,0.1023
1311.00, 
1312.00,0.1029
1313.00, 
1314.00,0.1035
1315.00, 
1316.00,0.1044
1317.00, 
1318.00,0.1052
1319.00, 
1320.00,0.1062
1321.00, 
1322.00,0.1071
1323.00, 
1324.00,0.1078
1325.00, 
1326.00,0.1085
1327.00, 
1328.00,0.1094
1329.00, 
1330.00,0.1102
1331.00, 
1332.00,0.1110
1333.00, 
1334.00,0.1117
1335.00, 
1336.00,0.1125
1337.00, 
1338.00,0.1134
1339.00, 
1340.00,0.1141
1341.00, 
1342.00,0.1149
1343.00, 
1344.00,0.1156
1345.00, 
1346.00,0.1164
1347.00, 
1348.00,0.1168
1349.00, 
1350.00,0.1173
1351.00, 
1352.00,0.1180
1353.00, 
1354.00,0.1191
1355.00, 
1356.00,0.1202
1357.00, 
1358.00,0.1214
1359.00, 
1360.00,0.1228
1361.00, 
1362.00,0.1240
1363.00, 
1364.00,0.1249
1365.00, 
1366.00,0.1255
1367.00, 
1368.00,0.1264
1369.00, 
1370.00,0.1272
1371.00, 
1372.00,0.1281
1373.00, 
1374.00,0.1289
1375.00, 
1376.00,0.1298
1377.00, 
1378.00,0.1305
1379.00, 
1380.00,0.1315
1381.00, 
1382.00,0.1324
1383.00, 
1384.00,0.1336
1385.00, 
1386.00,0.1347
1387.00, 
1388.00,0.1359
1389.00, 
1390.00,0.1371
1391.00, 
1392.00,0.1383
1393.00, 
1394.00,0.1392
1395.00, 
1396.00,0.1399
1397.00, 
1398.00,0.1407
1399.00, 
1400.00,0.1416
1401.00, 
1402.00,0.1426
1403.00, 
1404.00,0.1437
1405.00, 
1406.00,0.1448
1407.00, 
1408.00,0.1458
1409.00, 
1410.00,0.1468
1411.00, 
1412.00,0.1480
1413.00, 
1414.00,0.1492
1415.00, 
1416.00,0.1505
1417.00, 
1418.00,0.1518
1419.00, 
1420.00,0.1531
1421.00, 
1422.00,0.1541
1423.00, 
1424.00,0.1553
1425.00, 
1426.00,0.1566
1427.00, 
1428.00,0.1579
1429.00, 
1430.00,0.1593
1431.00, 
1432.00,0.1604
1433.00, 
1434.00,0.1617
1435.00, 
1436.00,0.1628
1437.00, 
1438.00,0.1641
1439.00, 
1440.00,0.1654
1441.00, 
1442.00,0.1669
1443.00, 
1444.00,0.1682
1445.00, 
1446.00,0.1695
1447.00, 
1448.00,0.1707
1449.00, 
1450.00,0.1723
1451.00, 
1452.00,0.1740
1453.00, 
1454.00,0.1753
1455.00, 
1456.00,0.1766
1457.00, 
1458.00,0.1778
1459.00, 
1460.00,0.1793
1461.00, 
1462.00,0.1806
1463.00, 
1464.00,0.1820
1465.00, 
1466.00,0.1835
1467.00, 
1468.00,0.1849
1469.00, 
1470.00,0.1864
1471.00, 
1472.00,0.1876
1473.00, 
1474.00,0.1891
1475.00, 
1476.00,0.1904
1477.00, 
1478.00,0.1919
1479.00, 
1480.00,0.1936
1481.00, 
1482.00,0.1952
1483.00, 
1484.00,0.1967
1485.00, 
1486.00,0.1982
1487.00, 
1488.00,0.1995
1489.00, 
1490.00,0.2011
1491.00, 
1492.00,0.2026
1493.00, 
1494.00,0.2040
1495.00, 
1496.00,0.2055
1497.00, 
1498.00,0.2070
1499.00, 
1500.00,0.2084
1501.00, 
1502.00,0.2099
1503.00, 
1504.00,0.2113
1505.00, 
1506.00,0.2130
1507.00, 
1508.00,0.2146
1509.00, 
1510.00,0.2163
1511.00, 
1512.00,0.2179
1513.00, 
1514.00,0.2194
1515.00, 
1516.00,0.2211
1517.00, 
1518.00,0.2226
1519.00, 
1520.00,0.2244
1521.00, 
1522.00,0.2259
1523.00, 
1524.00,0.2275
1525.00, 
1526.00,0.2291
1527.00, 
1528.00,0.2307
1529.00, 
1530.00,0.2323
1531.00, 
1532.00,0.2338
1533.00, 
1534.00,0.2355
1535.00, 
1536.00,0.2372
1537.00, 
1538.00,0.2389
1539.00, 
1540.00,0.2407
1541.00, 
1542.00,0.2425
1543.00, 
1544.00,0.2444
1545.00, 
1546.00,0.2460
1547.00, 
1548.00,0.2474
1549.00, 
1550.00,0.2485
1551.00, 
1552.00,0.2500
1553.00, 
1554.00,0.2518
1555.00, 
1556.00,0.2536
1557.00, 
1558.00,0.2553
1559.00, 
1560.00,0.2569
1561.00, 
1562.00,0.2584
1563.00, 
1564.00,0.2600
1565.00, 
1566.00,0.2615
1567.00, 
1568.00,0.2631
1569.00, 
1570.00,0.2648
1571.00, 
1572.00,0.2667
1573.00, 
1574.00,0.2684
1575.00, 
1576.00,0.2702
1577.00, 
1578.00,0.2715
1579.00, 
1580.00,0.2731
1581.00, 
1582.00,0.2745
1583.00, 
1584.00,0.2763
1585.00, 
1586.00,0.2780
1587.00, 
1588.00,0.2798
1589.00, 
1590.00,0.2815
1591.00, 
1592.00,0.2831
1593.00, 
1594.00,0.2845
1595.00, 
1596.00,0.2861
1597.00, 
1598.00,0.2877
1599.00, 
1600.00,0.2894
1601.00, 
1602.00,0.2910
1603.00, 
1604.00,0.2928
1605.00, 
1606.00,0.2943
1607.00, 
1608.00,0.2959
1609.00, 
1610.00,0.2974
1611.00, 
1612.00,0.2991
1613.00, 
1614.00,0.3005
1615.00, 
1616.00,0.3021
1617.00, 
1618.00,0.3038
1619.00, 
1620.00,0.3054
1621.00, 
1622.00,0.3071
1623.00, 
1624.00,0.3087
1625.00, 
1626.00,0.3102
1627.00, 
1628.00,0.3116
1629.00, 
1630.00,0.3129
1631.00, 
1632.00,0.3145
1633.00, 
1634.00,0.3159
1635.00, 
1636.00,0.3175
1637.00, 
1638.00,0.3189
1639.00, 
1640.00,0.3206
1641.00, 
1642.00,0.3221
1643.00, 
1644.00,0.3236
1645.00, 
1646.00,0.3249
1647.00, 
1648.00,0.3263
1649.00, 
1650.00,0.3295
1651.00, 
1652.00,0.3328
1653.00, 
1654.00,0.3361
1655.00, 
1656.00,0.3375
1657.00, 
1658.00,0.3389
1659.00, 
1660.00,0.3402
1661.00, 
1662.00,0.3415
1663.00, 
1664.00,0.3428
1665.00, 
1666.00,0.3442
1667.00, 
1668.00,0.3454
1669.00, 
1670.00,0.3467
1671.00, 
1672.00,0.3480
1673.00, 
1674.00,0.3491
1675.00, 
1676.00,0.3503
1677.00, 
1678.00,0.3516
1679.00, 
1680.00,0.3528
1681.00, 
1682.00,0.3539
1683.00, 
1684.00,0.3550
1685.00, 
1686.00,0.3562
1687.00, 
1688.00,0.3574
1689.00, 
1690.00,0.3588
1691.00, 
1692.00,0.3600
1693.00, 
1694.00,0.3611
1695.00, 
1696.00,0.3621
1697.00, 
1698.00,0.3632
1699.00, 
1700.00,0.3643
1701.00, 
1702.00,0.3655
1703.00, 
1704.00,0.3666
1705.00, 
1706.00,0.3677
1707.00, 
1708.00,0.3688
1709.00, 
1710.00,0.3700
1711.00, 
1712.00,0.3710
1713.00, 
1714.00,0.3721
1715.00, 
1716.00,0.3732
1717.00, 
1718.00,0.3742
1719.00, 
1720.00,0.3752
1721.00, 
1722.00,0.3764
1723.00, 
1724.00,0.3776
1725.00, 
1726.00,0.3787
1727.00, 
1728.00,0.3796
1729.00, 
1730.00,0.3806
1731.00, 
1732.00,0.3816
1733.00, 
1734.00,0.3826
1735.00, 
1736.00,0.3835
1737.00, 
1738.00,0.3845
1739.00, 
1740.00,0.3856
1741.00, 
1742.00,0.3867
1743.00, 
1744.00,0.3879
1745.00, 
1746.00,0.3888
1747.00, 
1748.00,0.3898
1749.00, 
1750.00,0.3905
1751.00, 
1752.00,0.3915
1753.00, 
1754.00,0.3925
1755.00, 
1756.00,0.3935
1757.00, 
1758.00,0.3945
1759.00, 
1760.00,0.3956
1761.00, 
1762.00,0.3965
1763.00, 
1764.00,0.3974
1765.00, 
1766.00,0.3983
1767.00, 
1768.00,0.3992
1769.00, 
1770.00,0.4002
1771.00, 
1772.00,0.4011
1773.00, 
1774.00,0.4019
1775.00, 
1776.00,0.4028
1777.00, 
1778.00,0.4036
1779.00, 
1780.00,0.4046
1781.00, 
1782.00,0.4055
1783.00, 
1784.00,0.4065
1785.00, 
1786.00,0.4074
1787.00, 
1788.00,0.4082
1789.00, 
1790.00,0.4090
1791.00, 
1792.00,0.4097
1793.00, 
1794.00,0.4104
1795.00, 
1796.00,0.4111
1797.00, 
1798.00,0.4118
1799.00, 
1800.00,0.4125
1801.00, 
1802.00,0.4135
1803.00, 
1804.00,0.4146
1805.00, 
1806.00,0.4158
1807.00, 
1808.00,0.4166
1809.00, 
1810.00,0.4174
1811.00, 
1812.00,0.4180
1813.00, 
1814.00,0.4188
1815.00, 
1816.00,0.4195
1817.00, 
1818.00,0.4205
1819.00, 
1820.00,0.4217
1821.00, 
1822.00,0.4230
1823.00, 
1824.00,0.4243
1825.00, 
1826.00,0.4252
1827.00, 
1828.00,0.4257
1829.00, 
1830.00,0.4256
1831.00, 
1832.00,0.4252
1833.00, 
1834.00,0.4250
1835.00, 
1836.00,0.4257
1837.00, 
1838.00,0.4269
1839.00, 
1840.00,0.4284
1841.00, 
1842.00,0.4294
1843.00, 
1844.00,0.4305
1845.00, 
1846.00,0.4313
1847.00, 
1848.00,0.4322
1849.00, 
1850.00,0.4328
1851.00, 
1852.00,0.4333
1853.00, 
1854.00,0.4337
1855.00, 
1856.00,0.4342
1857.00, 
1858.00,0.4344
1859.00, 
1860.00,0.4346
1861.00, 
1862.00,0.4345
1863.00, 
1864.00,0.4349
1865.00, 
1866.00,0.4352
1867.00, 
1868.00,0.4359
1869.00, 
1870.00,0.4369
1871.00, 
1872.00,0.4382
1873.00, 
1874.00,0.4394
1875.00, 
1876.00,0.4402
1877.00, 
1878.00,0.4406
1879.00, 
1880.00,0.4409
1881.00, 
1882.00,0.4411
1883.00, 
1884.00,0.4416
1885.00, 
1886.00,0.4419
1887.00, 
1888.00,0.4422
1889.00, 
1890.00,0.4425
1891.00, 
1892.00,0.4428
1893.00, 
1894.00,0.4432
1895.00, 
1896.00,0.4434
1897.00, 
1898.00,0.4438
1899.00, 
1900.00,0.4444
1901.00, 
1902.00,0.4451
1903.00, 
1904.00,0.4458
1905.00, 
1906.00,0.4463
1907.00, 
1908.00,0.4463
1909.00, 
1910.00,0.4464
1911.00, 
1912.00,0.4462
1913.00, 
1914.00,0.4459
1915.00, 
1916.00,0.4457
1917.00, 
1918.00,0.4457
1919.00, 
1920.00,0.4459
1921.00, 
1922.00,0.4462
1923.00, 
1924.00,0.4466
1925.00, 
1926.00,0.4470
1927.00, 
1928.00,0.4475
1929.00, 
1930.00,0.4483
1931.00, 
1932.00,0.4493
1933.00, 
1934.00,0.4498
1935.00, 
1936.00,0.4501
1937.00, 
1938.00,0.4502
1939.00, 
1940.00,0.4502
1941.00, 
1942.00,0.4499
1943.00, 
1944.00,0.4497
1945.00, 
1946.00,0.4496
1947.00, 
1948.00,0.4499
1949.00, 
1950.00,0.4501
1951.00, 
1952.00,0.4503
1953.00, 
1954.00,0.4505
1955.00, 
1956.00,0.4505
1957.00, 
1958.00,0.4505
1959.00, 
1960.00,0.4507
1961.00, 
1962.00,0.4508
1963.00, 
1964.00,0.4510
1965.00, 
1966.00,0.4512
1967.00, 
1968.00,0.4512
1969.00, 
1970.00,0.4511
1971.00, 
1972.00,0.4513
1973.00, 
1974.00,0.4515
1975.00, 
1976.00,0.4516
1977.00, 
1978.00,0.4518
1979.00, 
1980.00,0.4520
1981.00, 
1982.00,0.4522
1983.00, 
1984.00,0.4524
1985.00, 
1986.00,0.4524
1987.00, 
1988.00,0.4525
1989.00, 
1990.00,0.4523
1991.00, 
1992.00,0.4523
1993.00, 
1994.00,0.4524
1995.00, 
1996.00,0.4526
1997.00, 
1998.00,0.4527
1999.00, 
2000.00,0.4526
2001.00, 
2002.00,0.4526
2003.00, 
2004.00,0.4529
2005.00, 
2006.00,0.4530
2007.00, 
2008.00,0.4531
2009.00, 
2010.00,0.4528
2011.00, 
2012.00,0.4529
2013.00, 
2014.00,0.4530
2015.00, 
2016.00,0.4534
2017.00, 
2018.00,0.4534
2019.00, 
2020.00,0.4533
2021.00, 
2022.00,0.4533
2023.00, 
2024.00,0.4533
2025.00, 
2026.00,0.4532
2027.00, 
2028.00,0.4533
2029.00, 
2030.00,0.4536
2031.00, 
2032.00,0.4539
2033.00, 
2034.00,0.4542
2035.00, 
2036.00,0.4541
2037.00, 
2038.00,0.4540
2039.00, 
2040.00,0.4539
2041.00, 
2042.00,0.4538
2043.00, 
2044.00,0.4536
2045.00, 
2046.00,0.4533
2047.00, 
2048.00,0.4532
2049.00, 
2050.00,0.4538
2051.00, 
2052.00,0.4546
2053.00, 
2054.00,0.4551
2055.00, 
2056.00,0.4554
2057.00, 
2058.00,0.4557
2059.00, 
2060.00,0.4559
2061.00, 
2062.00,0.4559
2063.00, 
2064.00,0.4558
2065.00, 
2066.00,0.4558
2067.00, 
2068.00,0.4559
2069.00, 
2070.00,0.4558
2071.00, 
2072.00,0.4560
2073.00, 
2074.00,0.4561
2075.00, 
2076.00,0.4563
2077.00, 
2078.00,0.4566
2079.00, 
2080.00,0.4566
2081.00, 
2082.00,0.4566
2083.00, 
2084.00,0.4567
2085.00, 
2086.00,0.4569
2087.00, 
2088.00,0.4571
2089.00, 
2090.00,0.4572
2091.00, 
2092.00,0.4570
2093.00, 
2094.00,0.4566
2095.00, 
2096.00,0.4563
2097.00, 
2098.00,0.4563
2099.00, 
2100.00,0.4561
2101.00, 
2102.00,0.4561
2103.00, 
2104.00,0.4560
2105.00, 
2106.00,0.4560
2107.00, 
2108.00,0.4557
2109.00, 
2110.00,0.4558
2111.00, 
2112.00,0.4559
2113.00, 
2114.00,0.4558
2115.00, 
2116.00,0.4556
2117.00, 
2118.00,0.4551
2119.00, 
2120.00,0.4548
2121.00, 
2122.00,0.4546
2123.00, 
2124.00,0.4545
2125.00, 
2126.00,0.4544
2127.00, 
2128.00,0.4540
2129.00, 
2130.00,0.4538
2131.00, 
2132.00,0.4538
2133.00, 
2134.00,0.4538
2135.00, 
2136.00,0.4537
2137.00, 
2138.00,0.4536
2139.00, 
2140.00,0.4534
2141.00, 
2142.00,0.4532
2143.00, 
2144.00,0.4528
2145.00, 
2146.00,0.4526
2147.00, 
2148.00,0.4522
2149.00, 
2150.00,0.4518
2151.00, 
2152.00,0.4516
2153.00, 
2154.00,0.4514
2155.00, 
2156.00,0.4512
2157.00, 
2158.00,0.4509
2159.00, 
2160.00,0.4507
2161.00, 
2162.00,0.4505
2163.00, 
2164.00,0.4503
2165.00, 
2166.00,0.4503
2167.00, 
2168.00,0.4503
2169.00, 
2170.00,0.4502
2171.00, 
2172.00,0.4498
2173.00, 
2174.00,0.4497
2175.00, 
2176.00,0.4494
2177.00, 
2178.00,0.4495
2179.00, 
2180.00,0.4491
2181.00, 
2182.00,0.4490
2183.00, 
2184.00,0.4485
2185.00, 
2186.00,0.4487
2187.00, 
2188.00,0.4485
2189.00, 
2190.00,0.4483
2191.00, 
2192.00,0.4479
2193.00, 
2194.00,0.4480
2195.00, 
2196.00,0.4481
2197.00, 
2198.00,0.4481
2199.00, 
2200.00,0.4481
2201.00, 
2202.00,0.4482
2203.00, 
2204.00,0.4482
2205.00, 
2206.00,0.4480
2207.00, 
2208.00,0.4474
2209.00, 
2210.00,0.4469
2211.00, 
2212.00,0.4466
2213.00, 
2214.00,0.4464
2215.00, 
2216.00,0.4462
2217.00, 
2218.00,0.4460
2219.00, 
2220.00,0.4459
2221.00, 
2222.00,0.4457
2223.00, 
2224.00,0.4453
2225.00, 
2226.00,0.4452
2227.00, 
2228.00,0.4451
2229.00, 
2230.00,0.4449
2231.00, 
2232.00,0.4446
2233.00, 
2234.00,0.4445
2235.00, 
2236.00,0.4439
2237.00, 
2238.00,0.4434
2239.00, 
2240.00,0.4427
2241.00, 
2242.00,0.4426
2243.00, 
2244.00,0.4422
2245.00, 
2246.00,0.4422
2247.00, 
2248.00,0.4421
2249.00, 
2250.00,0.4422
2251.00, 
2252.00,0.4421
2253.00, 
2254.00,0.4422
2255.00, 
2256.00,0.4415
2257.00, 
2258.00,0.4412
2259.00, 
2260.00,0.4411
2261.00, 
2262.00,0.4418
2263.00, 
2264.00,0.4418
2265.00, 
2266.00,0.4413
2267.00, 
2268.00,0.4412
2269.00, 
2270.00,0.4408
2271.00, 
2272.00,0.4408
2273.00, 
2274.00,0.4403
2275.00, 
2276.00,0.4398
2277.00, 
2278.00,0.4397
2279.00, 
2280.00,0.4395
2281.00, 
2282.00,0.4397
2283.00, 
2284.00,0.4393
2285.00, 
2286.00,0.4388
2287.00, 
2288.00,0.4384
2289.00, 
2290.00,0.4380
2291.00, 
2292.00,0.4379
2293.00, 
2294.00,0.4375
2295.00, 
2296.00,0.4372
2297.00, 
2298.00,0.4367
2299.00, 
2300.00,0.4364
2301.00, 
2302.00,0.4361
2303.00, 
2304.00,0.4357
2305.00, 
2306.00,0.4355
2307.00, 
2308.00,0.4351
2309.00, 
2310.00,0.4349
2311.00, 
2312.00,0.4341
2313.00, 
2314.00,0.4337
2315.00, 
2316.00,0.4334
2317.00, 
2318.00,0.4334
2319.00, 
2320.00,0.4331
2321.00, 
2322.00,0.4328
2323.00, 
2324.00,0.4324
2325.00, 
2326.00,0.4323
2327.00, 
2328.00,0.4322
2329.00, 
2330.00,0.4320
2331.00, 
2332.00,0.4314
2333.00, 
2334.00,0.4309
2335.00, 
2336.00,0.4305
2337.00, 
2338.00,0.4301
2339.00, 
2340.00,0.4298
2341.00, 
2342.00,0.4295
2343.00, 
2344.00,0.4293
2345.00, 
2346.00,0.4290
2347.00, 
2348.00,0.4286
2349.00, 
2350.00,0.4286
2351.00, 
2352.00,0.4283
2353.00, 
2354.00,0.4281
2355.00, 
2356.00,0.4275
2357.00, 
2358.00,0.4273
2359.00, 
2360.00,0.4274
2361.00, 
2362.00,0.4272
2363.00, 
2364.00,0.4270
2365.00, 
2366.00,0.4264
2367.00, 
2368.00,0.4261
2369.00, 
2370.00,0.4253
2371.00, 
2372.00,0.4248
2373.00, 
2374.00,0.4242
2375.00, 
2376.00,0.4241
2377.00, 
2378.00,0.4236
2379.00, 
2380.00,0.4237
2381.00, 
2382.00,0.4235
2383.00, 
2384.00,0.4232
2385.00, 
2386.00,0.4227
2387.00, 
2388.00,0.4221
2389.00, 
2390.00,0.4220
2391.00, 
2392.00,0.4217
2393.00, 
2394.00,0.4215
2395.00, 
2396.00,0.4214
2397.00, 
2398.00,0.4208
2399.00, 
2400.00,0.4207
2401.00, 
2402.00,0.4202
2403.00, 
2404.00,0.4202
2405.00, 
2406.00,0.4201
2407.00, 
2408.00,0.4196
2409.00, 
2410.00,0.4194
2411.00, 
2412.00,0.4188
2413.00, 
2414.00,0.4188
2415.00, 
2416.00,0.4184
2417.00, 
2418.00,0.4183
2419.00, 
2420.00,0.4178
2421.00, 
2422.00,0.4177
2423.00, 
2424.00,0.4172
2425.00, 
2426.00,0.4171
2427.00, 
2428.00,0.4165
2429.00, 
2430.00,0.4164
2431.00, 
2432.00,0.4162
2433.00, 
2434.00,0.4159
2435.00, 
2436.00,0.4156
2437.00, 
2438.00,0.4154
2439.00, 
2440.00,0.4155
2441.00, 
2442.00,0.4152
2443.00, 
2444.00,0.4145
2445.00, 
2446.00,0.4141
2447.00, 
2448.00,0.4137
2449.00, 
2450.00,0.4139
2451.00, 
2452.00,0.4135
2453.00, 
2454.00,0.4137
2455.00, 
2456.00,0.4129
2457.00, 
2458.00,0.4129
2459.00, 
2460.00,0.4127
2461.00, 
2462.00,0.4126
2463.00, 
2464.00,0.4124
2465.00, 
2466.00,0.4116
2467.00, 
2468.00,0.4116
2469.00, 
2470.00,0.4107
2471.00, 
2472.00,0.4105
2473.00, 
2474.00,0.4099
2475.00, 
2476.00,0.4106
2477.00, 
2478.00,0.4102
2479.00, 
2480.00,0.4102
2481.00, 
2482.00,0.4096
2483.00, 
2484.00,0.4095
2485.00, 
2486.00,0.4092
2487.00, 
2488.00,0.4090
2489.00, 
2490.00,0.4089
2491.00, 
2492.00,0.4085
2493.00, 
2494.00,0.4081
2495.00, 
2496.00,0.4071
2497.00, 
2498.00,0.4067
2499.00, 
2500.00,0.4075
2501.00, 
2502.00,0.4086
2503.00, 
2504.00,0.4094
2505.00, 
2506.00,0.4086
2507.00, 
2508.00,0.4082
2509.00, 
2510.00,0.4079
2511.00, 
2512.00,0.4077
2513.00, 
2514.00,0.4074
2515.00, 
2516.00,0.4067
2517.00, 
2518.00,0.4063
2519.00, 
2520.00,0.4062
2521.00, 
2522.00,0.4064
2523.00, 
2524.00,0.4068
2525.00, 
2526.00,0.4066
2527.00, 
2528.00,0.4065
2529.00, 
2530.00,0.4061
2531.00, 
2532.00,0.4058
2533.00, 
2534.00,0.4053
2535.00, 
2536.00,0.4045
2537.00, 
2538.00,0.4041
2539.00, 
2540.00,0.4034
2541.00, 
2542.00,0.4032
2543.00, 
2544.00,0.4028
2545.00, 
2546.00,0.4032
2547.00, 
2548.00,0.4039
2549.00, 
2550.00,0.4042
2551.00, 
2552.00,0.4040
2553.00, 
2554.00,0.4038
2555.00, 
2556.00,0.4033
2557.00, 
2558.00,0.4030
2559.00, 
2560.00,0.4019
2561.00, 
2562.00,0.4013
2563.00, 
2564.00,0.4010
2565.00, 
2566.00,0.4003
2567.00, 
2568.00,0.3991
2569.00, 
2570.00,0.3971
2571.00, 
2572.00,0.3957
2573.00, 
2574.00,0.3943
2575.00, 
2576.00,0.3927
2577.00, 
2578.00,0.3922
2579.00, 
2580.00,0.3927
2581.00, 
2582.00,0.3946
2583.00, 
2584.00,0.3961
2585.00, 
2586.00,0.3974
2587.00, 
2588.00,0.3978
2589.00, 
2590.00,0.3980
2591.00, 
2592.00,0.3971
2593.00, 
2594.00,0.3961
2595.00, 
2596.00,0.3939
2597.00, 
2598.00,0.3927
2599.00, 
2600.00,0.3926
2601.00, 
2602.00,0.3941
2603.00, 
2604.00,0.3964
2605.00, 
2606.00,0.3978
2607.00, 
2608.00,0.3986
2609.00, 
2610.00,0.3975
2611.00, 
2612.00,0.3960
2613.00, 
2614.00,0.3926
2615.00, 
2616.00,0.3907
2617.00, 
2618.00,0.3893
2619.00, 
2620.00,0.3891
2621.00, 
2622.00,0.3891
2623.00, 
2624.00,0.3898
2625.00, 
2626.00,0.3898
2627.00, 
2628.00,0.3896
2629.00, 
2630.00,0.3882
2631.00, 
2632.00,0.3876
2633.00, 
2634.00,0.3871
2635.00, 
2636.00,0.3874
2637.00, 
2638.00,0.3881
2639.00, 
2640.00,0.3879
2641.00, 
2642.00,0.3875
2643.00, 
2644.00,0.3870
2645.00, 
2646.00,0.3861
2647.00, 
2648.00,0.3855
2649.00, 
2650.00,0.3845
2651.00, 
2652.00,0.3838
2653.00, 
2654.00,0.3825
2655.00, 
2656.00,0.3814
2657.00, 
2658.00,0.3815
2659.00, 
2660.00,0.3805
2661.00, 
2662.00,0.3804
2663.00, 
2664.00,0.3805
2665.00, 
2666.00,0.3832
2667.00, 
2668.00,0.3846
2669.00, 
2670.00,0.3867
2671.00, 
2672.00,0.3877
2673.00, 
2674.00,0.3895
2675.00, 
2676.00,0.3906
2677.00, 
2678.00,0.3924
2679.00, 
2680.00,0.3938
2681.00, 
2682.00,0.3940
2683.00, 
2684.00,0.3943
2685.00, 
2686.00,0.3966
2687.00, 
2688.00,0.3996
2689.00, 
2690.00,0.4027
2691.00, 
2692.00,0.4058
2693.00, 
2694.00,0.4117
2695.00, 
2696.00,0.4169
2697.00, 
2698.00,0.4213
2699.00, 
2700.00,0.4254
2701.00, 
2702.00,0.4285
2703.00, 
2704.00,0.4310
2705.00, 
2706.00,0.4328
2707.00, 
2708.00,0.4338
2709.00, 
2710.00,0.4336
2711.00, 
2712.00,0.4347
2713.00, 
2714.00,0.4341
2715.00, 
2716.00,0.4351
2717.00, 
2718.00,0.4307
2719.00, 
2720.00,0.4314
2721.00, 
2722.00,0.4293
2723.00, 
2724.00,0.4290
2725.00, 
2726.00,0.4269
2727.00, 
2728.00,0.4276
2729.00, 
2730.00,0.4248
2731.00, 
2732.00,0.4196
2733.00, 
2734.00,0.4156
2735.00, 
2736.00,0.4129
2737.00, 
2738.00,0.4103
2739.00, 
2740.00,0.4068
2741.00, 
2742.00,0.4064
2743.00, 
2744.00,0.4054
2745.00, 
2746.00,0.4043
2747.00, 
2748.00,0.4029
2749.00, 
2750.00,0.4018
2751.00, 
2752.00,0.4009
2753.00, 
2754.00,0.3993
2755.00, 
2756.00,0.3966
2757.00, 
2758.00,0.3948
2759.00, 
2760.00,0.3939
2761.00, 
2762.00,0.3935
2763.00, 
2764.00,0.3921
2765.00, 
2766.00,0.3911
2767.00, 
2768.00,0.3898
2769.00, 
2770.00,0.3884
2771.00, 
2772.00,0.3869
2773.00, 
2774.00,0.3859
2775.00, 
2776.00,0.3842
2777.00, 
2778.00,0.3831
2779.00, 
2780.00,0.3810
2781.00, 
2782.00,0.3790
2783.00, 
2784.00,0.3780
2785.00, 
2786.00,0.3774
2787.00, 
2788.00,0.3760
2789.00, 
2790.00,0.3754
2791.00, 
2792.00,0.3746
2793.00, 
2794.00,0.3738
2795.00, 
2796.00,0.3729
2797.00, 
2798.00,0.3726
2799.00, 
2800.00,0.3717
2801.00, 
2802.00,0.3707
2803.00, 
2804.00,0.3694
2805.00, 
2806.00,0.3682
2807.00, 
2808.00,0.3674
2809.00, 
2810.00,0.3665
2811.00, 
2812.00,0.3662
2813.00, 
2814.00,0.3655
2815.00, 
2816.00,0.3653
2817.00, 
2818.00,0.3647
2819.00, 
2820.00,0.3647
2821.00, 
2822.00,0.3643
2823.00, 
2824.00,0.3640
2825.00, 
2826.00,0.3636
2827.00, 
2828.00,0.3631
2829.00, 
2830.00,0.3625
2831.00, 
2832.00,0.3623
2833.00, 
2834.00,0.3623
2835.00, 
2836.00,0.3623
2837.00, 
2838.00,0.3622
2839.00, 
2840.00,0.3618
2841.00, 
2842.00,0.3615
2843.00, 
2844.00,0.3612
2845.00, 
2846.00,0.3609
2847.00, 
2848.00,0.3606
2849.00, 
2850.00,0.3604
2851.00, 
2852.00,0.3601
2853.00, 
2854.00,0.3600
2855.00, 
2856.00,0.3595
2857.00, 
2858.00,0.3594
2859.00, 
2860.00,0.3594
2861.00, 
2862.00,0.3591
2863.00, 
2864.00,0.3587
2865.00, 
2866.00,0.3583
2867.00, 
2868.00,0.3576
2869.00, 
2870.00,0.3572
2871.00, 
2872.00,0.3567
2873.00, 
2874.00,0.3561
2875.00, 
2876.00,0.3556
2877.00, 
2878.00,0.3552
2879.00, 
2880.00,0.3549
2881.00, 
2882.00,0.3547
2883.00, 
2884.00,0.3544
2885.00, 
2886.00,0.3539
2887.00, 
2888.00,0.3537
2889.00, 
2890.00,0.3531
2891.00, 
2892.00,0.3528
2893.00, 
2894.00,0.3526
2895.00, 
2896.00,0.3524
2897.00, 
2898.00,0.3519
2899.00, 
2900.00,0.3520
2901.00, 
2902.00,0.3517
2903.00, 
2904.00,0.3512
2905.00, 
2906.00,0.3509
2907.00, 
2908.00,0.3507
2909.00, 
2910.00,0.3502
2911.00, 
2912.00,0.3501
2913.00, 
2914.00,0.3498
2915.00, 
2916.00,0.3494
2917.00, 
2918.00,0.3491
2919.00, 
2920.00,0.3488
2921.00, 
2922.00,0.3482
2923.00, 
2924.00,0.3479
2925.00, 
2926.00,0.3477
2927.00, 
2928.00,0.3474
2929.00, 
2930.00,0.3470
2931.00, 
2932.00,0.3467
2933.00, 
2934.00,0.3464
2935.00, 
2936.00,0.3462
2937.00, 
2938.00,0.3454
2939.00, 
2940.00,0.3452
2941.00, 
2942.00,0.3449
2943.00, 
2944.00,0.3445
2945.00, 
2946.00,0.3440
2947.00, 
2948.00,0.3440
2949.00, 
2950.00,0.3438
2951.00, 
2952.00,0.3434
2953.00, 
2954.00,0.3433
2955.00, 
2956.00,0.3429
2957.00, 
2958.00,0.3423
2959.00, 
2960.00,0.3420
2961.00, 
2962.00,0.3415
2963.00, 
2964.00,0.3409
2965.00, 
2966.00,0.3406
2967.00, 
2968.00,0.3406
2969.00, 
2970.00,0.3403
2971.00, 
2972.00,0.3397
2973.00, 
2974.00,0.3398
2975.00, 
2976.00,0.3397
2977.00, 
2978.00,0.3392
2979.00, 
2980.00,0.3387
2981.00, 
2982.00,0.3388
2983.00, 
2984.00,0.3383
2985.00, 
2986.00,0.3378
2987.00, 
2988.00,0.3375
2989.00, 
2990.00,0.3376
2991.00, 
2992.00,0.3371
2993.00, 
2994.00,0.3368
2995.00, 
2996.00,0.3364
2997.00, 
2998.00,0.3374
2999.00, 
3000.00,0.3381
3001.00, 
3002.00,0.3390
3003.00, 
3004.00,0.3393
3005.00, 
3006.00,0.3398
3007.00, 
3008.00,0.3403
3009.00, 
3010.00,0.3409
3011.00, 
3012.00,0.3406
3013.00, 
3014.00,0.3403
3015.00, 
3016.00,0.3399
3017.00, 
3018.00,0.3396
3019.00, 
3020.00,0.3393
3021.00, 
3022.00,0.3388
3023.00, 
3024.00,0.3383
3025.00, 
3026.00,0.3379
3027.00, 
3028.00,0.3374
3029.00, 
3030.00,0.3371
3031.00, 
3032.00,0.3370
3033.00, 
3034.00,0.3367
3035.00, 
3036.00,0.3365
3037.00, 
3038.00,0.3363
3039.00, 
3040.00,0.3361
3041.00, 
3042.00,0.3359
3043.00, 
3044.00,0.3357
3045.00, 
3046.00,0.3356
3047.00, 
3048.00,0.3352
3049.00, 
3050.00,0.3349
3051.00, 
3052.00,0.3346
3053.00, 
3054.00,0.3343
3055.00, 
3056.00,0.3339
3057.00, 
3058.00,0.3335
3059.00, 
3060.00,0.3331
3061.00, 
3062.00,0.3326
3063.00, 
3064.00,0.3321
3065.00, 
3066.00,0.3315
3067.00, 
3068.00,0.3312
3069.00, 
3070.00,0.3308
3071.00, 
3072.00,0.3305
3073.00, 
3074.00,0.3301
3075.00, 
3076.00,0.3298
3077.00, 
3078.00,0.3294
3079.00, 
3080.00,0.3293
3081.00, 
3082.00,0.3291
3083.00, 
3084.00,0.3291
3085.00, 
3086.00,0.3287
3087.00, 
3088.00,0.3285
3089.00, 
3090.00,0.3283
3091.00, 
3092.00,0.3281
3093.00, 
3094.00,0.3279
3095.00, 
3096.00,0.3279
3097.00, 
3098.00,0.3278
3099.00, 
3100.00,0.3274
3101.00, 
3102.00,0.3273
3103.00, 
3104.00,0.3272
3105.00, 
3106.00,0.3269
3107.00, 
3108.00,0.3266
3109.00, 
3110.00,0.3264
3111.00, 
3112.00,0.3263
3113.00, 
3114.00,0.3257
3115.00, 
3116.00,0.3252
3117.00, 
3118.00,0.3252
3119.00, 
3120.00,0.3249
3121.00, 
3122.00,0.3247
3123.00, 
3124.00,0.3244
3125.00, 
3126.00,0.3241
3127.00, 
3128.00,0.3237
3129.00, 
3130.00,0.3235
3131.00, 
3132.00,0.3231
3133.00, 
3134.00,0.3231
3135.00, 
3136.00,0.3227
3137.00, 
3138.00,0.3223
3139.00, 
3140.00,0.3222
3141.00, 
3142.00,0.3221
3143.00, 
3144.00,0.3218
3145.00, 
3146.00,0.3215
3147.00, 
3148.00,0.3211
3149.00, 
3150.00,0.3211
3151.00, 
3152.00,0.3207
3153.00, 
3154.00,0.3205
3155.00, 
3156.00,0.3201
3157.00, 
3158.00,0.3195
3159.00, 
3160.00,0.3192
3161.00, 
3162.00,0.3190
3163.00, 
3164.00,0.3192
3165.00, 
3166.00,0.3189
3167.00, 
3168.00,0.3188
3169.00, 
3170.00,0.3186
3171.00, 
3172.00,0.3181
3173.00, 
3174.00,0.3178
3175.00, 
3176.00,0.3173
3177.00, 
3178.00,0.3174
3179.00, 
3180.00,0.3169
3181.00, 
3182.00,0.3160
3183.00, 
3184.00,0.3158
3185.00, 
3186.00,0.3152
3187.00, 
3188.00,0.3148
3189.00, 
3190.00,0.3147
3191.00, 
3192.00,0.3143
3193.00, 
3194.00,0.3137
3195.00, 
3196.00,0.3127
3197.00, 
3198.00,0.3128
3199.00, 
3200.00,0.3132
3201.00, 
3202.00,0.3130
3203.00, 
3204.00,0.3122
3205.00, 
3206.00,0.3115
3207.00, 
3208.00,0.3109
3209.00, 
3210.00,0.3116
3211.00, 
3212.00,0.3121
3213.00, 
3214.00,0.3127
3215.00, 
3216.00,0.3123
3217.00, 
3218.00,0.3120
3219.00, 
3220.00,0.3118
3221.00, 
3222.00,0.3113
3223.00, 
3224.00,0.3116
3225.00, 
3226.00,0.3123
3227.00, 
3228.00,0.3114
3229.00, 
3230.00,0.3107
3231.00, 
3232.00,0.3100
3233.00, 
3234.00,0.3095
3235.00, 
3236.00,0.3092
3237.00, 
3238.00,0.3088
3239.00, 
3240.00,0.3091
3241.00, 
3242.00,0.3091
3243.00, 
3244.00,0.3082
3245.00, 
3246.00,0.3078
3247.00, 
3248.00,0.3080
3249.00, 
3250.00,0.3077
3251.00, 
3252.00,0.3068
3253.00, 
3254.00,0.3069
3255.00, 
3256.00,0.3070
3257.00, 
3258.00,0.3069
3259.00, 
3260.00,0.3073
3261.00, 
3262.00,0.3063
3263.00, 
3264.00,0.3057
3265.00, 
3266.00,0.3057
3267.00, 
3268.00,0.3060
3269.00, 
3270.00,0.3067
3271.00, 
3272.00,0.3055
3273.00, 
3274.00,0.3057
3275.00, 
3276.00,0.3057
3277.00, 
3278.00,0.3048
3279.00, 
3280.00,0.3068
3281.00, 
3282.00,0.3074
3283.00, 
3284.00,0.3076
3285.00, 
3286.00,0.3069
3287.00, 
3288.00,0.3073
3289.00, 
3290.00,0.3079
3291.00, 
3292.00,0.3072
3293.00, 
3294.00,0.3071
3295.00, 
3296.00,0.3070
3297.00, 
3298.00,0.3058
3299.00, 
3300.00,0.3055
