"20-30mM-1_THF20mM - RawData"
"Wavelength nm."	"Abs."
300.00	0.2890
301.00	0.2896
302.00	0.2900
303.00	0.2904
304.00	0.2906
305.00	0.2909
306.00	0.2913
307.00	0.2923
308.00	0.2937
309.00	0.2952
310.00	0.2964
311.00	0.2976
312.00	0.2996
313.00	0.3015
314.00	0.3037
315.00	0.3067
316.00	0.3101
317.00	0.3127
318.00	0.3156
319.00	0.3182
320.00	0.3208
321.00	0.3234
322.00	0.3262
323.00	0.3290
324.00	0.3322
325.00	0.3352
326.00	0.3383
327.00	0.3416
328.00	0.3449
329.00	0.3483
330.00	0.3516
331.00	0.3545
332.00	0.3568
333.00	0.3600
334.00	0.3632
335.00	0.3667
336.00	0.3709
337.00	0.3755
338.00	0.3791
339.00	0.3827
340.00	0.3864
341.00	0.3899
342.00	0.3935
343.00	0.3973
344.00	0.4011
345.00	0.4050
346.00	0.4085
347.00	0.4122
348.00	0.4155
349.00	0.4189
350.00	0.4222
351.00	0.4258
352.00	0.4294
353.00	0.4330
354.00	0.4365
355.00	0.4400
356.00	0.4436
357.00	0.4472
358.00	0.4508
359.00	0.4546
360.00	0.4583
361.00	0.4621
362.00	0.4654
363.00	0.4698
364.00	0.4743
365.00	0.4793
366.00	0.4845
367.00	0.4903
368.00	0.4954
369.00	0.5009
370.00	0.5066
371.00	0.5129
372.00	0.5184
373.00	0.5244
374.00	0.5303
375.00	0.5364
376.00	0.5422
377.00	0.5495
378.00	0.5569
379.00	0.5645
380.00	0.5726
381.00	0.5811
382.00	0.5895
383.00	0.5987
384.00	0.6083
385.00	0.6176
386.00	0.6272
387.00	0.6367
388.00	0.6455
389.00	0.6540
390.00	0.6624
391.00	0.6705
392.00	0.6786
393.00	0.6863
394.00	0.6938
395.00	0.7012
396.00	0.7082
397.00	0.7152
398.00	0.7220
399.00	0.7289
400.00	0.7359
401.00	0.7434
402.00	0.7509
403.00	0.7588
404.00	0.7667
405.00	0.7746
406.00	0.7824
407.00	0.7902
408.00	0.7977
409.00	0.8048
410.00	0.8115
411.00	0.8176
412.00	0.8231
413.00	0.8277
414.00	0.8316
415.00	0.8344
416.00	0.8363
417.00	0.8373
418.00	0.8374
419.00	0.8366
420.00	0.8354
421.00	0.8334
422.00	0.8306
423.00	0.8274
424.00	0.8235
425.00	0.8191
426.00	0.8148
427.00	0.8104
428.00	0.8063
429.00	0.8023
430.00	0.7987
431.00	0.7957
432.00	0.7931
433.00	0.7910
434.00	0.7896
435.00	0.7887
436.00	0.7883
437.00	0.7882
438.00	0.7886
439.00	0.7893
440.00	0.7903
441.00	0.7915
442.00	0.7931
443.00	0.7951
444.00	0.7973
445.00	0.7998
446.00	0.8025
447.00	0.8056
448.00	0.8088
449.00	0.8123
450.00	0.8161
451.00	0.8201
452.00	0.8242
453.00	0.8287
454.00	0.8332
455.00	0.8377
456.00	0.8424
457.00	0.8470
458.00	0.8515
459.00	0.8562
460.00	0.8610
461.00	0.8659
462.00	0.8709
463.00	0.8756
464.00	0.8806
465.00	0.8853
466.00	0.8901
467.00	0.8946
468.00	0.8994
469.00	0.9037
470.00	0.9079
471.00	0.9120
472.00	0.9162
473.00	0.9200
474.00	0.9240
475.00	0.9280
476.00	0.9318
477.00	0.9356
478.00	0.9393
479.00	0.9429
480.00	0.9462
481.00	0.9493
482.00	0.9524
483.00	0.9554
484.00	0.9579
485.00	0.9601
486.00	0.9623
487.00	0.9639
488.00	0.9654
489.00	0.9671
490.00	0.9686
491.00	0.9700
492.00	0.9713
493.00	0.9724
494.00	0.9735
495.00	0.9747
496.00	0.9758
497.00	0.9768
498.00	0.9778
499.00	0.9786
500.00	0.9791
501.00	0.9795
502.00	0.9795
503.00	0.9793
504.00	0.9790
505.00	0.9788
506.00	0.9780
507.00	0.9772
508.00	0.9763
509.00	0.9750
510.00	0.9733
511.00	0.9717
512.00	0.9700
513.00	0.9678
514.00	0.9655
515.00	0.9629
516.00	0.9600
517.00	0.9571
518.00	0.9540
519.00	0.9511
520.00	0.9481
521.00	0.9451
522.00	0.9420
523.00	0.9388
524.00	0.9352
525.00	0.9315
526.00	0.9280
527.00	0.9243
528.00	0.9209
529.00	0.9175
530.00	0.9145
531.00	0.9103
532.00	0.9064
533.00	0.9023
534.00	0.8982
535.00	0.8937
536.00	0.8903
537.00	0.8870
538.00	0.8837
539.00	0.8803
540.00	0.8765
541.00	0.8726
542.00	0.8685
543.00	0.8641
544.00	0.8601
545.00	0.8560
546.00	0.8521
547.00	0.8482
548.00	0.8444
549.00	0.8403
550.00	0.8366
551.00	0.8328
552.00	0.8286
553.00	0.8244
554.00	0.8202
555.00	0.8159
556.00	0.8116
557.00	0.8075
558.00	0.8034
559.00	0.7993
560.00	0.7951
561.00	0.7908
562.00	0.7866
563.00	0.7826
564.00	0.7785
565.00	0.7741
566.00	0.7699
567.00	0.7654
568.00	0.7606
569.00	0.7559
570.00	0.7517
571.00	0.7473
572.00	0.7431
573.00	0.7388
574.00	0.7343
575.00	0.7294
576.00	0.7245
577.00	0.7195
578.00	0.7147
579.00	0.7100
580.00	0.7052
581.00	0.7005
582.00	0.6957
583.00	0.6908
584.00	0.6858
585.00	0.6807
586.00	0.6755
587.00	0.6704
588.00	0.6653
589.00	0.6602
590.00	0.6551
591.00	0.6502
592.00	0.6450
593.00	0.6398
594.00	0.6346
595.00	0.6297
596.00	0.6246
597.00	0.6196
598.00	0.6147
599.00	0.6098
600.00	0.6048
601.00	0.5999
602.00	0.5953
603.00	0.5906
604.00	0.5858
605.00	0.5811
606.00	0.5765
607.00	0.5721
608.00	0.5679
609.00	0.5639
610.00	0.5602
611.00	0.5563
612.00	0.5525
613.00	0.5486
614.00	0.5449
615.00	0.5413
616.00	0.5381
617.00	0.5352
618.00	0.5324
619.00	0.5295
620.00	0.5265
621.00	0.5239
622.00	0.5212
623.00	0.5190
624.00	0.5168
625.00	0.5150
626.00	0.5132
627.00	0.5116
628.00	0.5098
629.00	0.5084
630.00	0.5068
631.00	0.5051
632.00	0.5034
633.00	0.5020
634.00	0.5007
635.00	0.4997
636.00	0.4987
637.00	0.4983
638.00	0.4983
639.00	0.4978
640.00	0.4970
641.00	0.4964
642.00	0.4957
643.00	0.4952
644.00	0.4948
645.00	0.4948
646.00	0.4948
647.00	0.4949
648.00	0.4948
649.00	0.4952
650.00	0.4955
651.00	0.4960
652.00	0.4964
653.00	0.4968
654.00	0.4972
655.00	0.4979
656.00	0.4985
657.00	0.4994
658.00	0.5002
659.00	0.5007
660.00	0.5011
661.00	0.5015
662.00	0.5018
663.00	0.5020
664.00	0.5026
665.00	0.5033
666.00	0.5040
667.00	0.5047
668.00	0.5055
669.00	0.5064
670.00	0.5082
671.00	0.5093
672.00	0.5105
673.00	0.5121
674.00	0.5135
675.00	0.5141
676.00	0.5152
677.00	0.5163
678.00	0.5173
679.00	0.5183
680.00	0.5195
681.00	0.5207
682.00	0.5219
683.00	0.5231
684.00	0.5242
685.00	0.5250
686.00	0.5258
687.00	0.5266
688.00	0.5271
689.00	0.5275
690.00	0.5278
691.00	0.5289
692.00	0.5290
693.00	0.5295
694.00	0.5300
695.00	0.5309
696.00	0.5305
697.00	0.5313
698.00	0.5314
699.00	0.5315
700.00	0.5316
701.00	0.5323
702.00	0.5327
703.00	0.5332
704.00	0.5336
705.00	0.5341
706.00	0.5343
707.00	0.5342
708.00	0.5347
709.00	0.5349
710.00	0.5352
711.00	0.5352
712.00	0.5357
713.00	0.5357
714.00	0.5361
715.00	0.5364
716.00	0.5367
717.00	0.5369
718.00	0.5372
719.00	0.5376
720.00	0.5382
721.00	0.5387
722.00	0.5395
723.00	0.5401
724.00	0.5403
725.00	0.5411
726.00	0.5411
727.00	0.5420
728.00	0.5429
729.00	0.5444
730.00	0.5451
731.00	0.5472
732.00	0.5483
733.00	0.5498
734.00	0.5513
735.00	0.5529
736.00	0.5542
737.00	0.5558
738.00	0.5573
739.00	0.5591
740.00	0.5610
741.00	0.5630
742.00	0.5649
743.00	0.5667
744.00	0.5685
745.00	0.5703
746.00	0.5720
747.00	0.5735
748.00	0.5756
749.00	0.5769
750.00	0.5783
751.00	0.5796
752.00	0.5811
753.00	0.5818
754.00	0.5830
755.00	0.5841
756.00	0.5850
757.00	0.5858
758.00	0.5868
759.00	0.5876
760.00	0.5884
761.00	0.5892
762.00	0.5901
763.00	0.5909
764.00	0.5916
765.00	0.5922
766.00	0.5926
767.00	0.5926
768.00	0.5920
769.00	0.5910
770.00	0.5897
771.00	0.5879
772.00	0.5862
773.00	0.5842
774.00	0.5819
775.00	0.5793
776.00	0.5768
777.00	0.5741
778.00	0.5714
779.00	0.5689
780.00	0.5663
781.00	0.5635
782.00	0.5608
783.00	0.5581
784.00	0.5560
785.00	0.5542
786.00	0.5522
787.00	0.5501
788.00	0.5481
789.00	0.5456
790.00	0.5429
791.00	0.5404
792.00	0.5376
793.00	0.5348
794.00	0.5316
795.00	0.5288
796.00	0.5256
797.00	0.5220
798.00	0.5186
799.00	0.5154
800.00	0.5118
801.00	0.5087
802.00	0.5061
803.00	0.5033
804.00	0.5005
805.00	0.4979
806.00	0.4953
807.00	0.4929
808.00	0.4908
809.00	0.4887
810.00	0.4871
811.00	0.4857
812.00	0.4843
813.00	0.4830
814.00	0.4821
815.00	0.4814
816.00	0.4806
817.00	0.4801
818.00	0.4797
819.00	0.4792
820.00	0.4787
821.00	0.4786
822.00	0.4786
823.00	0.4788
824.00	0.4791
825.00	0.4795
826.00	0.4799
827.00	0.4805
828.00	0.4813
829.00	0.4820
830.00	0.4828
831.00	0.4846
832.00	0.4857
833.00	0.4869
834.00	0.4882
835.00	0.4896
836.00	0.4909
837.00	0.4925
838.00	0.4942
839.00	0.4959
840.00	0.4978
841.00	0.5001
842.00	0.5023
843.00	0.5043
844.00	0.5066
845.00	0.5087
846.00	0.5109
847.00	0.5128
848.00	0.5147
849.00	0.5164
850.00	0.5179
851.00	0.5192
852.00	0.5202
853.00	0.5210
854.00	0.5214
855.00	0.5215
856.00	0.5215
857.00	0.5213
858.00	0.5206
859.00	0.5200
860.00	0.5192
861.00	0.5183
862.00	0.5173
863.00	0.5166
864.00	0.5159
865.00	0.5149
866.00	0.5140
867.00	0.5132
868.00	0.5123
869.00	0.5112
870.00	0.5101
871.00	0.5087
872.00	0.5070
873.00	0.5051
874.00	0.5030
875.00	0.5006
876.00	0.4982
877.00	0.4951
878.00	0.4916
879.00	0.4877
880.00	0.4838
881.00	0.4799
882.00	0.4759
883.00	0.4719
884.00	0.4678
885.00	0.4634
886.00	0.4587
887.00	0.4542
888.00	0.4496
889.00	0.4450
890.00	0.4403
891.00	0.4357
892.00	0.4311
893.00	0.4266
894.00	0.4224
895.00	0.4183
896.00	0.4141
897.00	0.4101
898.00	0.4063
899.00	0.4024
900.00	0.3986
901.00	0.3947
902.00	0.3910
903.00	0.3870
904.00	0.3834
905.00	0.3798
906.00	0.3762
907.00	0.3727
908.00	0.3693
909.00	0.3658
910.00	0.3624
911.00	0.3590
912.00	0.3555
913.00	0.3526
914.00	0.3493
915.00	0.3461
916.00	0.3432
917.00	0.3404
918.00	0.3371
919.00	0.3343
920.00	0.3316
921.00	0.3287
922.00	0.3259
923.00	0.3229
924.00	0.3201
925.00	0.3172
926.00	0.3146
927.00	0.3121
928.00	0.3095
929.00	0.3069
930.00	0.3043
931.00	0.3017
932.00	0.2992
933.00	0.2966
934.00	0.2943
935.00	0.2919
936.00	0.2896
937.00	0.2872
938.00	0.2850
939.00	0.2827
940.00	0.2805
941.00	0.2782
942.00	0.2761
943.00	0.2738
944.00	0.2716
945.00	0.2695
946.00	0.2672
947.00	0.2651
948.00	0.2630
949.00	0.2608
950.00	0.2587
951.00	0.2568
952.00	0.2548
953.00	0.2528
954.00	0.2508
955.00	0.2491
956.00	0.2470
957.00	0.2451
958.00	0.2433
959.00	0.2413
960.00	0.2392
961.00	0.2375
962.00	0.2356
963.00	0.2337
964.00	0.2320
965.00	0.2300
966.00	0.2281
967.00	0.2261
968.00	0.2242
969.00	0.2231
970.00	0.2209
971.00	0.2190
972.00	0.2173
973.00	0.2156
974.00	0.2133
975.00	0.2122
976.00	0.2108
977.00	0.2092
978.00	0.2076
979.00	0.2059
980.00	0.2043
981.00	0.2026
982.00	0.2011
983.00	0.1996
984.00	0.1981
985.00	0.1966
986.00	0.1952
987.00	0.1935
988.00	0.1920
989.00	0.1905
990.00	0.1890
991.00	0.1875
992.00	0.1861
993.00	0.1848
994.00	0.1834
995.00	0.1821
996.00	0.1807
997.00	0.1793
998.00	0.1778
999.00	0.1764
1000.00	0.1749
1001.00	0.1731
1002.00	0.1719
1003.00	0.1704
1004.00	0.1691
1005.00	0.1679
1006.00	0.1671
1007.00	0.1658
1008.00	0.1646
1009.00	0.1633
1010.00	0.1621
1011.00	0.1607
1012.00	0.1595
1013.00	0.1585
1014.00	0.1572
1015.00	0.1560
1016.00	0.1549
1017.00	0.1540
1018.00	0.1530
1019.00	0.1520
1020.00	0.1510
1021.00	0.1499
1022.00	0.1486
1023.00	0.1475
1024.00	0.1465
1025.00	0.1453
1026.00	0.1443
1027.00	0.1432
1028.00	0.1422
1029.00	0.1412
1030.00	0.1404
1031.00	0.1395
1032.00	0.1386
1033.00	0.1376
1034.00	0.1368
1035.00	0.1358
1036.00	0.1348
1037.00	0.1340
1038.00	0.1331
1039.00	0.1322
1040.00	0.1315
1041.00	0.1309
1042.00	0.1301
1043.00	0.1292
1044.00	0.1284
1045.00	0.1276
1046.00	0.1268
1047.00	0.1261
1048.00	0.1254
1049.00	0.1247
1050.00	0.1239
1051.00	0.1231
1052.00	0.1223
1053.00	0.1218
1054.00	0.1209
1055.00	0.1202
1056.00	0.1195
1057.00	0.1192
1058.00	0.1184
1059.00	0.1176
1060.00	0.1170
1061.00	0.1166
1062.00	0.1156
1063.00	0.1152
1064.00	0.1150
1065.00	0.1144
1066.00	0.1137
1067.00	0.1134
1068.00	0.1130
1069.00	0.1123
1070.00	0.1118
1071.00	0.1114
1072.00	0.1108
1073.00	0.1101
1074.00	0.1098
1075.00	0.1094
1076.00	0.1088
1077.00	0.1082
1078.00	0.1079
1079.00	0.1074
1080.00	0.1070
1081.00	0.1067
1082.00	0.1064
1083.00	0.1061
1084.00	0.1056
1085.00	0.1052
1086.00	0.1050
1087.00	0.1047
1088.00	0.1043
1089.00	0.1041
1090.00	0.1037
1091.00	0.1035
1092.00	0.1030
1093.00	0.1027
1094.00	0.1023
1095.00	0.1019
1096.00	0.1016
1097.00	0.1016
1098.00	0.1014
1099.00	0.1013
1100.00	0.1011
1101.00	0.1007
1102.00	0.1003
1103.00	0.1000
1104.00	0.0994
1105.00	0.0994
1106.00	0.0992
1107.00	0.0989
1108.00	0.0989
1109.00	0.0988
1110.00	0.0985
1111.00	0.0984
1112.00	0.0983
1113.00	0.0981
1114.00	0.0979
1115.00	0.0979
1116.00	0.0977
1117.00	0.0974
1118.00	0.0971
1119.00	0.0969
1120.00	0.0967
1121.00	0.0965
1122.00	0.0965
1123.00	0.0965
1124.00	0.0964
1125.00	0.0963
1126.00	0.0961
1127.00	0.0961
1128.00	0.0960
1129.00	0.0959
1130.00	0.0957
1131.00	0.0957
1132.00	0.0957
1133.00	0.0956
1134.00	0.0956
1135.00	0.0955
1136.00	0.0955
1137.00	0.0953
1138.00	0.0953
1139.00	0.0952
1140.00	0.0954
1141.00	0.0954
1142.00	0.0952
1143.00	0.0951
1144.00	0.0953
1145.00	0.0947
1146.00	0.0947
1147.00	0.0949
1148.00	0.0949
1149.00	0.0948
1150.00	0.0950
1151.00	0.0949
1152.00	0.0948
1153.00	0.0947
1154.00	0.0947
1155.00	0.0949
1156.00	0.0950
1157.00	0.0950
1158.00	0.0952
1159.00	0.0954
1160.00	0.0953
1161.00	0.0954
1162.00	0.0954
1163.00	0.0955
1164.00	0.0955
1165.00	0.0956
1166.00	0.0957
1167.00	0.0957
1168.00	0.0957
1169.00	0.0956
1170.00	0.0958
1171.00	0.0958
1172.00	0.0958
1173.00	0.0959
1174.00	0.0959
1175.00	0.0960
1176.00	0.0959
1177.00	0.0962
1178.00	0.0962
1179.00	0.0964
1180.00	0.0964
1181.00	0.0967
1182.00	0.0967
1183.00	0.0967
1184.00	0.0971
1185.00	0.0967
1186.00	0.0965
1187.00	0.0967
1188.00	0.0969
1189.00	0.0968
1190.00	0.0975
1191.00	0.0980
1192.00	0.0981
1193.00	0.0983
1194.00	0.0987
1195.00	0.0991
1196.00	0.0990
1197.00	0.0991
1198.00	0.0992
1199.00	0.0990
1200.00	0.0988
1201.00	0.0991
1202.00	0.0993
1203.00	0.0997
1204.00	0.1002
1205.00	0.1007
1206.00	0.1008
1207.00	0.1009
1208.00	0.1009
1209.00	0.1006
1210.00	0.1007
1211.00	0.1008
1212.00	0.1009
1213.00	0.1011
1214.00	0.1014
1215.00	0.1014
1216.00	0.1013
1217.00	0.1017
1218.00	0.1017
1219.00	0.1018
1220.00	0.1021
1221.00	0.1025
1222.00	0.1026
1223.00	0.1028
1224.00	0.1031
1225.00	0.1033
1226.00	0.1037
1227.00	0.1038
1228.00	0.1040
1229.00	0.1044
1230.00	0.1047
1231.00	0.1048
1232.00	0.1056
1233.00	0.1059
1234.00	0.1058
1235.00	0.1060
1236.00	0.1060
1237.00	0.1058
1238.00	0.1061
1239.00	0.1062
1240.00	0.1064
1241.00	0.1068
1242.00	0.1068
1243.00	0.1071
1244.00	0.1074
1245.00	0.1077
1246.00	0.1081
1247.00	0.1083
1248.00	0.1086
1249.00	0.1087
1250.00	0.1089
1251.00	0.1091
1252.00	0.1093
1253.00	0.1095
1254.00	0.1097
1255.00	0.1098
1256.00	0.1101
1257.00	0.1106
1258.00	0.1108
1259.00	0.1113
1260.00	0.1117
1261.00	0.1119
1262.00	0.1122
1263.00	0.1126
1264.00	0.1128
1265.00	0.1131
1266.00	0.1134
1267.00	0.1135
1268.00	0.1139
1269.00	0.1140
1270.00	0.1144
1271.00	0.1148
1272.00	0.1150
1273.00	0.1152
1274.00	0.1156
1275.00	0.1158
1276.00	0.1162
1277.00	0.1165
1278.00	0.1168
1279.00	0.1172
1280.00	0.1176
1281.00	0.1180
1282.00	0.1184
1283.00	0.1189
1284.00	0.1192
1285.00	0.1192
1286.00	0.1193
1287.00	0.1196
1288.00	0.1196
1289.00	0.1198
1290.00	0.1204
1291.00	0.1208
1292.00	0.1212
1293.00	0.1217
1294.00	0.1221
1295.00	0.1223
1296.00	0.1225
1297.00	0.1228
1298.00	0.1233
1299.00	0.1237
1300.00	0.1239
1301.00	0.1245
1302.00	0.1249
1303.00	0.1253
1304.00	0.1255
1305.00	0.1261
1306.00	0.1265
1307.00	0.1267
1308.00	0.1270
1309.00	0.1276
1310.00	0.1278
1311.00	0.1282
1312.00	0.1287
1313.00	0.1290
1314.00	0.1295
1315.00	0.1299
1316.00	0.1303
1317.00	0.1308
1318.00	0.1312
1319.00	0.1315
1320.00	0.1318
1321.00	0.1321
1322.00	0.1323
1323.00	0.1328
1324.00	0.1332
1325.00	0.1337
1326.00	0.1341
1327.00	0.1345
1328.00	0.1349
1329.00	0.1351
1330.00	0.1358
1331.00	0.1361
1332.00	0.1367
1333.00	0.1371
1334.00	0.1377
1335.00	0.1379
1336.00	0.1384
1337.00	0.1390
1338.00	0.1394
1339.00	0.1400
1340.00	0.1406
1341.00	0.1412
1342.00	0.1417
1343.00	0.1422
1344.00	0.1426
1345.00	0.1432
1346.00	0.1434
1347.00	0.1441
1348.00	0.1447
1349.00	0.1451
1350.00	0.1456
1351.00	0.1462
1352.00	0.1466
1353.00	0.1472
1354.00	0.1480
1355.00	0.1484
1356.00	0.1490
1357.00	0.1495
1358.00	0.1500
1359.00	0.1506
1360.00	0.1512
1361.00	0.1517
1362.00	0.1523
1363.00	0.1529
1364.00	0.1533
1365.00	0.1541
1366.00	0.1547
1367.00	0.1554
1368.00	0.1561
1369.00	0.1569
1370.00	0.1572
1371.00	0.1580
1372.00	0.1586
1373.00	0.1591
1374.00	0.1598
1375.00	0.1604
1376.00	0.1611
1377.00	0.1619
1378.00	0.1627
1379.00	0.1632
1380.00	0.1641
1381.00	0.1649
1382.00	0.1654
1383.00	0.1660
1384.00	0.1670
1385.00	0.1676
1386.00	0.1679
1387.00	0.1685
1388.00	0.1692
1389.00	0.1696
1390.00	0.1702
1391.00	0.1709
1392.00	0.1716
1393.00	0.1721
1394.00	0.1726
1395.00	0.1732
1396.00	0.1739
1397.00	0.1745
1398.00	0.1751
1399.00	0.1757
1400.00	0.1765
1401.00	0.1771
1402.00	0.1777
1403.00	0.1786
1404.00	0.1795
1405.00	0.1802
1406.00	0.1809
1407.00	0.1816
1408.00	0.1824
1409.00	0.1831
1410.00	0.1837
1411.00	0.1844
1412.00	0.1850
1413.00	0.1856
1414.00	0.1864
1415.00	0.1871
1416.00	0.1879
1417.00	0.1886
1418.00	0.1891
1419.00	0.1899
1420.00	0.1905
1421.00	0.1910
1422.00	0.1918
1423.00	0.1925
1424.00	0.1931
1425.00	0.1938
1426.00	0.1948
1427.00	0.1955
1428.00	0.1963
1429.00	0.1969
1430.00	0.1970
1431.00	0.1975
1432.00	0.1982
1433.00	0.1988
1434.00	0.1995
1435.00	0.2007
1436.00	0.2016
1437.00	0.2023
1438.00	0.2033
1439.00	0.2042
1440.00	0.2049
1441.00	0.2056
1442.00	0.2062
1443.00	0.2068
1444.00	0.2075
1445.00	0.2083
1446.00	0.2090
1447.00	0.2097
1448.00	0.2106
1449.00	0.2114
1450.00	0.2123
1451.00	0.2133
1452.00	0.2141
1453.00	0.2147
1454.00	0.2156
1455.00	0.2162
1456.00	0.2168
1457.00	0.2176
1458.00	0.2186
1459.00	0.2193
1460.00	0.2202
1461.00	0.2211
1462.00	0.2219
1463.00	0.2226
1464.00	0.2232
1465.00	0.2239
1466.00	0.2246
1467.00	0.2253
1468.00	0.2260
1469.00	0.2270
1470.00	0.2280
1471.00	0.2292
1472.00	0.2298
1473.00	0.2310
1474.00	0.2321
1475.00	0.2325
1476.00	0.2323
1477.00	0.2333
1478.00	0.2337
1479.00	0.2342
1480.00	0.2353
1481.00	0.2368
1482.00	0.2377
1483.00	0.2386
1484.00	0.2395
1485.00	0.2403
1486.00	0.2406
1487.00	0.2410
1488.00	0.2420
1489.00	0.2427
1490.00	0.2434
1491.00	0.2447
1492.00	0.2459
1493.00	0.2465
1494.00	0.2475
1495.00	0.2484
1496.00	0.2493
1497.00	0.2501
1498.00	0.2508
1499.00	0.2515
1500.00	0.2523
1501.00	0.2531
1502.00	0.2539
1503.00	0.2549
1504.00	0.2558
1505.00	0.2567
1506.00	0.2577
1507.00	0.2587
1508.00	0.2598
1509.00	0.2607
1510.00	0.2616
1511.00	0.2623
1512.00	0.2631
1513.00	0.2638
1514.00	0.2647
1515.00	0.2657
1516.00	0.2665
1517.00	0.2676
1518.00	0.2684
1519.00	0.2693
1520.00	0.2700
1521.00	0.2706
1522.00	0.2712
1523.00	0.2721
1524.00	0.2729
1525.00	0.2738
1526.00	0.2750
1527.00	0.2759
1528.00	0.2768
1529.00	0.2777
1530.00	0.2786
1531.00	0.2794
1532.00	0.2804
1533.00	0.2812
1534.00	0.2821
1535.00	0.2830
1536.00	0.2838
1537.00	0.2847
1538.00	0.2856
1539.00	0.2864
1540.00	0.2873
1541.00	0.2882
1542.00	0.2889
1543.00	0.2899
1544.00	0.2908
1545.00	0.2916
1546.00	0.2927
1547.00	0.2936
1548.00	0.2944
1549.00	0.2953
1550.00	0.2963
1551.00	0.2970
1552.00	0.2981
1553.00	0.2995
1554.00	0.3005
1555.00	0.3012
1556.00	0.3020
1557.00	0.3028
1558.00	0.3031
1559.00	0.3039
1560.00	0.3049
1561.00	0.3057
1562.00	0.3065
1563.00	0.3078
1564.00	0.3085
1565.00	0.3095
1566.00	0.3103
1567.00	0.3112
1568.00	0.3118
1569.00	0.3126
1570.00	0.3135
1571.00	0.3145
1572.00	0.3155
1573.00	0.3164
1574.00	0.3175
1575.00	0.3181
1576.00	0.3189
1577.00	0.3197
1578.00	0.3209
1579.00	0.3218
1580.00	0.3226
1581.00	0.3237
1582.00	0.3247
1583.00	0.3253
1584.00	0.3261
1585.00	0.3273
1586.00	0.3281
1587.00	0.3290
1588.00	0.3299
1589.00	0.3307
1590.00	0.3316
1591.00	0.3324
1592.00	0.3332
1593.00	0.3342
1594.00	0.3352
1595.00	0.3359
1596.00	0.3368
1597.00	0.3378
1598.00	0.3386
1599.00	0.3392
1600.00	0.3402
1601.00	0.3410
1602.00	0.3418
1603.00	0.3428
1604.00	0.3438
1605.00	0.3447
1606.00	0.3456
1607.00	0.3465
1608.00	0.3470
1609.00	0.3476
1610.00	0.3482
1611.00	0.3491
1612.00	0.3498
1613.00	0.3510
1614.00	0.3520
1615.00	0.3529
1616.00	0.3536
1617.00	0.3546
1618.00	0.3553
1619.00	0.3561
1620.00	0.3571
1621.00	0.3578
1622.00	0.3586
1623.00	0.3592
1624.00	0.3604
1625.00	0.3613
1626.00	0.3622
1627.00	0.3629
1628.00	0.3639
1629.00	0.3645
1630.00	0.3649
1631.00	0.3656
1632.00	0.3662
1633.00	0.3670
1634.00	0.3676
1635.00	0.3683
1636.00	0.3692
1637.00	0.3701
1638.00	0.3706
1639.00	0.3712
1640.00	0.3718
1641.00	0.3720
1642.00	0.3726
1643.00	0.3731
1644.00	0.3736
1645.00	0.3740
1646.00	0.3744
1647.00	0.3747
1648.00	0.3751
1649.00	0.3753
1650.00	0.3755
1651.00	0.3760
1652.00	0.3760
1653.00	0.3763
1654.00	0.3766
1655.00	0.3769
1656.00	0.3771
1657.00	0.3775
1658.00	0.3781
1659.00	0.3787
1660.00	0.3791
1661.00	0.3798
1662.00	0.3805
1663.00	0.3810
1664.00	0.3815
1665.00	0.3825
1666.00	0.3831
1667.00	0.3837
1668.00	0.3843
1669.00	0.3850
1670.00	0.3857
1671.00	0.3863
1672.00	0.3870
1673.00	0.3877
1674.00	0.3884
1675.00	0.3892
1676.00	0.3902
1677.00	0.3909
1678.00	0.3914
1679.00	0.3919
1680.00	0.3926
1681.00	0.3932
1682.00	0.3938
1683.00	0.3947
1684.00	0.3954
1685.00	0.3962
1686.00	0.3969
1687.00	0.3976
1688.00	0.3984
1689.00	0.3989
1690.00	0.3995
1691.00	0.3997
1692.00	0.4003
1693.00	0.4007
1694.00	0.4013
1695.00	0.4017
1696.00	0.4025
1697.00	0.4031
1698.00	0.4040
1699.00	0.4049
1700.00	0.4055
1701.00	0.4063
1702.00	0.4070
1703.00	0.4073
1704.00	0.4075
1705.00	0.4080
1706.00	0.4084
1707.00	0.4090
1708.00	0.4097
1709.00	0.4104
1710.00	0.4112
1711.00	0.4117
1712.00	0.4126
1713.00	0.4133
1714.00	0.4142
1715.00	0.4150
1716.00	0.4156
1717.00	0.4158
1718.00	0.4162
1719.00	0.4166
1720.00	0.4171
1721.00	0.4175
1722.00	0.4183
1723.00	0.4191
1724.00	0.4196
1725.00	0.4201
1726.00	0.4209
1727.00	0.4212
1728.00	0.4217
1729.00	0.4224
1730.00	0.4229
1731.00	0.4235
1732.00	0.4241
1733.00	0.4248
1734.00	0.4253
1735.00	0.4258
1736.00	0.4264
1737.00	0.4270
1738.00	0.4273
1739.00	0.4279
1740.00	0.4284
1741.00	0.4289
1742.00	0.4295
1743.00	0.4300
1744.00	0.4304
1745.00	0.4308
1746.00	0.4314
1747.00	0.4319
1748.00	0.4326
1749.00	0.4332
1750.00	0.4338
1751.00	0.4344
1752.00	0.4350
1753.00	0.4355
1754.00	0.4361
1755.00	0.4367
1756.00	0.4372
1757.00	0.4375
1758.00	0.4378
1759.00	0.4379
1760.00	0.4381
1761.00	0.4383
1762.00	0.4389
1763.00	0.4394
1764.00	0.4402
1765.00	0.4410
1766.00	0.4417
1767.00	0.4424
1768.00	0.4431
1769.00	0.4435
1770.00	0.4440
1771.00	0.4443
1772.00	0.4445
1773.00	0.4448
1774.00	0.4455
1775.00	0.4460
1776.00	0.4466
1777.00	0.4471
1778.00	0.4475
1779.00	0.4478
1780.00	0.4482
1781.00	0.4486
1782.00	0.4491
1783.00	0.4499
1784.00	0.4504
1785.00	0.4511
1786.00	0.4516
1787.00	0.4521
1788.00	0.4523
1789.00	0.4527
1790.00	0.4531
1791.00	0.4534
1792.00	0.4538
1793.00	0.4542
1794.00	0.4547
1795.00	0.4550
1796.00	0.4556
1797.00	0.4561
1798.00	0.4566
1799.00	0.4569
1800.00	0.4574
1801.00	0.4577
1802.00	0.4581
1803.00	0.4586
1804.00	0.4591
1805.00	0.4595
1806.00	0.4601
1807.00	0.4607
1808.00	0.4612
1809.00	0.4617
1810.00	0.4622
1811.00	0.4625
1812.00	0.4627
1813.00	0.4629
1814.00	0.4632
1815.00	0.4633
1816.00	0.4636
1817.00	0.4640
1818.00	0.4644
1819.00	0.4647
1820.00	0.4652
1821.00	0.4658
1822.00	0.4662
1823.00	0.4665
1824.00	0.4669
1825.00	0.4674
1826.00	0.4674
1827.00	0.4678
1828.00	0.4681
1829.00	0.4683
1830.00	0.4686
1831.00	0.4692
1832.00	0.4695
1833.00	0.4701
1834.00	0.4707
1835.00	0.4710
1836.00	0.4714
1837.00	0.4718
1838.00	0.4718
1839.00	0.4721
1840.00	0.4725
1841.00	0.4725
1842.00	0.4726
1843.00	0.4729
1844.00	0.4730
1845.00	0.4731
1846.00	0.4734
1847.00	0.4737
1848.00	0.4738
1849.00	0.4738
1850.00	0.4742
1851.00	0.4744
1852.00	0.4746
1853.00	0.4751
1854.00	0.4759
1855.00	0.4762
1856.00	0.4770
1857.00	0.4780
1858.00	0.4785
1859.00	0.4787
1860.00	0.4792
1861.00	0.4793
1862.00	0.4791
1863.00	0.4792
1864.00	0.4797
1865.00	0.4797
1866.00	0.4795
1867.00	0.4798
1868.00	0.4803
1869.00	0.4802
1870.00	0.4805
1871.00	0.4814
1872.00	0.4819
1873.00	0.4821
1874.00	0.4826
1875.00	0.4831
1876.00	0.4830
1877.00	0.4832
1878.00	0.4832
1879.00	0.4832
1880.00	0.4832
1881.00	0.4832
1882.00	0.4833
1883.00	0.4835
1884.00	0.4835
1885.00	0.4837
1886.00	0.4839
1887.00	0.4839
1888.00	0.4839
1889.00	0.4842
1890.00	0.4845
1891.00	0.4848
1892.00	0.4851
1893.00	0.4856
1894.00	0.4858
1895.00	0.4852
1896.00	0.4863
1897.00	0.4869
1898.00	0.4873
1899.00	0.4879
1900.00	0.4894
1901.00	0.4894
1902.00	0.4899
1903.00	0.4906
1904.00	0.4911
1905.00	0.4916
1906.00	0.4915
1907.00	0.4915
1908.00	0.4912
1909.00	0.4914
1910.00	0.4913
1911.00	0.4912
1912.00	0.4911
1913.00	0.4910
1914.00	0.4907
1915.00	0.4905
1916.00	0.4906
1917.00	0.4909
1918.00	0.4912
1919.00	0.4913
1920.00	0.4916
1921.00	0.4919
1922.00	0.4922
1923.00	0.4924
1924.00	0.4929
1925.00	0.4928
1926.00	0.4930
1927.00	0.4932
1928.00	0.4933
1929.00	0.4934
1930.00	0.4936
1931.00	0.4936
1932.00	0.4935
1933.00	0.4935
1934.00	0.4934
1935.00	0.4936
1936.00	0.4937
1937.00	0.4939
1938.00	0.4945
1939.00	0.4950
1940.00	0.4952
1941.00	0.4958
1942.00	0.4958
1943.00	0.4958
1944.00	0.4959
1945.00	0.4961
1946.00	0.4961
1947.00	0.4964
1948.00	0.4964
1949.00	0.4965
1950.00	0.4964
1951.00	0.4964
1952.00	0.4962
1953.00	0.4965
1954.00	0.4965
1955.00	0.4966
1956.00	0.4970
1957.00	0.4975
1958.00	0.4975
1959.00	0.4978
1960.00	0.4978
1961.00	0.4980
1962.00	0.4979
1963.00	0.4982
1964.00	0.4980
1965.00	0.4982
1966.00	0.4982
1967.00	0.4985
1968.00	0.4986
1969.00	0.4988
1970.00	0.4991
1971.00	0.4993
1972.00	0.4992
1973.00	0.4992
1974.00	0.4995
1975.00	0.4993
1976.00	0.4995
1977.00	0.4997
1978.00	0.5000
1979.00	0.5003
1980.00	0.5006
1981.00	0.5005
1982.00	0.5007
1983.00	0.5005
1984.00	0.5004
1985.00	0.5006
1986.00	0.5010
1987.00	0.5009
1988.00	0.5012
1989.00	0.5015
1990.00	0.5016
1991.00	0.5015
1992.00	0.5019
1993.00	0.5018
1994.00	0.5018
1995.00	0.5018
1996.00	0.5020
1997.00	0.5018
1998.00	0.5022
1999.00	0.5025
2000.00	0.5028
2001.00	0.5028
2002.00	0.5031
2003.00	0.5028
2004.00	0.5026
2005.00	0.5025
2006.00	0.5025
2007.00	0.5025
2008.00	0.5029
2009.00	0.5031
2010.00	0.5032
2011.00	0.5033
2012.00	0.5035
2013.00	0.5037
2014.00	0.5037
2015.00	0.5040
2016.00	0.5042
2017.00	0.5040
2018.00	0.5040
2019.00	0.5040
2020.00	0.5039
2021.00	0.5038
2022.00	0.5038
2023.00	0.5039
2024.00	0.5037
2025.00	0.5036
2026.00	0.5038
2027.00	0.5039
2028.00	0.5036
2029.00	0.5037
2030.00	0.5039
2031.00	0.5038
2032.00	0.5037
2033.00	0.5042
2034.00	0.5044
2035.00	0.5047
2036.00	0.5049
2037.00	0.5049
2038.00	0.5046
2039.00	0.5043
2040.00	0.5037
2041.00	0.5034
2042.00	0.5036
2043.00	0.5038
2044.00	0.5039
2045.00	0.5044
2046.00	0.5046
2047.00	0.5045
2048.00	0.5042
2049.00	0.5045
2050.00	0.5043
2051.00	0.5049
2052.00	0.5053
2053.00	0.5060
2054.00	0.5061
2055.00	0.5069
2056.00	0.5070
2057.00	0.5069
2058.00	0.5069
2059.00	0.5071
2060.00	0.5066
2061.00	0.5063
2062.00	0.5060
2063.00	0.5063
2064.00	0.5063
2065.00	0.5067
2066.00	0.5068
2067.00	0.5071
2068.00	0.5069
2069.00	0.5071
2070.00	0.5068
2071.00	0.5069
2072.00	0.5070
2073.00	0.5069
2074.00	0.5067
2075.00	0.5066
2076.00	0.5068
2077.00	0.5066
2078.00	0.5068
2079.00	0.5066
2080.00	0.5067
2081.00	0.5066
2082.00	0.5070
2083.00	0.5069
2084.00	0.5071
2085.00	0.5073
2086.00	0.5076
2087.00	0.5075
2088.00	0.5073
2089.00	0.5073
2090.00	0.5077
2091.00	0.5075
2092.00	0.5075
2093.00	0.5076
2094.00	0.5078
2095.00	0.5071
2096.00	0.5067
2097.00	0.5067
2098.00	0.5068
2099.00	0.5071
2100.00	0.5071
2101.00	0.5074
2102.00	0.5069
2103.00	0.5066
2104.00	0.5060
2105.00	0.5058
2106.00	0.5055
2107.00	0.5060
2108.00	0.5058
2109.00	0.5058
2110.00	0.5060
2111.00	0.5060
2112.00	0.5060
2113.00	0.5062
2114.00	0.5066
2115.00	0.5065
2116.00	0.5065
2117.00	0.5061
2118.00	0.5060
2119.00	0.5057
2120.00	0.5058
2121.00	0.5057
2122.00	0.5064
2123.00	0.5065
2124.00	0.5067
2125.00	0.5066
2126.00	0.5065
2127.00	0.5062
2128.00	0.5060
2129.00	0.5059
2130.00	0.5062
2131.00	0.5064
2132.00	0.5063
2133.00	0.5065
2134.00	0.5062
2135.00	0.5064
2136.00	0.5060
2137.00	0.5057
2138.00	0.5055
2139.00	0.5058
2140.00	0.5053
2141.00	0.5056
2142.00	0.5058
2143.00	0.5060
2144.00	0.5060
2145.00	0.5060
2146.00	0.5062
2147.00	0.5057
2148.00	0.5054
2149.00	0.5052
2150.00	0.5048
2151.00	0.5046
2152.00	0.5048
2153.00	0.5049
2154.00	0.5049
2155.00	0.5053
2156.00	0.5050
2157.00	0.5046
2158.00	0.5046
2159.00	0.5041
2160.00	0.5037
2161.00	0.5037
2162.00	0.5040
2163.00	0.5041
2164.00	0.5038
2165.00	0.5040
2166.00	0.5043
2167.00	0.5041
2168.00	0.5040
2169.00	0.5041
2170.00	0.5041
2171.00	0.5037
2172.00	0.5038
2173.00	0.5035
2174.00	0.5040
2175.00	0.5037
2176.00	0.5038
2177.00	0.5039
2178.00	0.5042
2179.00	0.5039
2180.00	0.5040
2181.00	0.5039
2182.00	0.5035
2183.00	0.5031
2184.00	0.5035
2185.00	0.5035
2186.00	0.5035
2187.00	0.5033
2188.00	0.5039
2189.00	0.5039
2190.00	0.5039
2191.00	0.5038
2192.00	0.5043
2193.00	0.5037
2194.00	0.5035
2195.00	0.5034
2196.00	0.5034
2197.00	0.5034
2198.00	0.5041
2199.00	0.5037
2200.00	0.5038
2201.00	0.5043
2202.00	0.5048
2203.00	0.5048
2204.00	0.5052
2205.00	0.5050
2206.00	0.5048
2207.00	0.5044
2208.00	0.5043
2209.00	0.5041
2210.00	0.5043
2211.00	0.5043
2212.00	0.5039
2213.00	0.5036
2214.00	0.5035
2215.00	0.5036
2216.00	0.5037
2217.00	0.5042
2218.00	0.5039
2219.00	0.5041
2220.00	0.5036
2221.00	0.5029
2222.00	0.5022
2223.00	0.5021
2224.00	0.5013
2225.00	0.5011
2226.00	0.5015
2227.00	0.5015
2228.00	0.5013
2229.00	0.5016
2230.00	0.5015
2231.00	0.5015
2232.00	0.5018
2233.00	0.5018
2234.00	0.5013
2235.00	0.5014
2236.00	0.5010
2237.00	0.5000
2238.00	0.5000
2239.00	0.5003
2240.00	0.5005
2241.00	0.5004
2242.00	0.5006
2243.00	0.5004
2244.00	0.5003
2245.00	0.4997
2246.00	0.4996
2247.00	0.4996
2248.00	0.4994
2249.00	0.4990
2250.00	0.4987
2251.00	0.4981
2252.00	0.4979
2253.00	0.4980
2254.00	0.4979
2255.00	0.4980
2256.00	0.4983
2257.00	0.4984
2258.00	0.4983
2259.00	0.4981
2260.00	0.4982
2261.00	0.4983
2262.00	0.4978
2263.00	0.4978
2264.00	0.4980
2265.00	0.4975
2266.00	0.4969
2267.00	0.4968
2268.00	0.4970
2269.00	0.4969
2270.00	0.4969
2271.00	0.4966
2272.00	0.4970
2273.00	0.4962
2274.00	0.4958
2275.00	0.4959
2276.00	0.4961
2277.00	0.4958
2278.00	0.4958
2279.00	0.4959
2280.00	0.4956
2281.00	0.4954
2282.00	0.4947
2283.00	0.4945
2284.00	0.4941
2285.00	0.4940
2286.00	0.4936
2287.00	0.4939
2288.00	0.4936
2289.00	0.4934
2290.00	0.4933
2291.00	0.4932
2292.00	0.4929
2293.00	0.4931
2294.00	0.4931
2295.00	0.4933
2296.00	0.4933
2297.00	0.4935
2298.00	0.4930
2299.00	0.4929
2300.00	0.4926
2301.00	0.4925
2302.00	0.4924
2303.00	0.4926
2304.00	0.4923
2305.00	0.4922
2306.00	0.4918
2307.00	0.4920
2308.00	0.4921
2309.00	0.4923
2310.00	0.4921
2311.00	0.4921
2312.00	0.4916
2313.00	0.4912
2314.00	0.4908
2315.00	0.4906
2316.00	0.4906
2317.00	0.4901
2318.00	0.4899
2319.00	0.4898
2320.00	0.4897
2321.00	0.4895
2322.00	0.4894
2323.00	0.4892
2324.00	0.4892
2325.00	0.4888
2326.00	0.4887
2327.00	0.4887
2328.00	0.4889
2329.00	0.4888
2330.00	0.4887
2331.00	0.4885
2332.00	0.4888
2333.00	0.4884
2334.00	0.4885
2335.00	0.4886
2336.00	0.4886
2337.00	0.4882
2338.00	0.4880
2339.00	0.4877
2340.00	0.4874
2341.00	0.4872
2342.00	0.4876
2343.00	0.4870
2344.00	0.4869
2345.00	0.4868
2346.00	0.4863
2347.00	0.4854
2348.00	0.4854
2349.00	0.4851
2350.00	0.4852
2351.00	0.4852
2352.00	0.4856
2353.00	0.4857
2354.00	0.4859
2355.00	0.4856
2356.00	0.4854
2357.00	0.4847
2358.00	0.4844
2359.00	0.4839
2360.00	0.4837
2361.00	0.4838
2362.00	0.4843
2363.00	0.4846
2364.00	0.4843
2365.00	0.4841
2366.00	0.4839
2367.00	0.4831
2368.00	0.4830
2369.00	0.4830
2370.00	0.4833
2371.00	0.4831
2372.00	0.4835
2373.00	0.4833
2374.00	0.4840
2375.00	0.4838
2376.00	0.4836
2377.00	0.4831
2378.00	0.4829
2379.00	0.4819
2380.00	0.4814
2381.00	0.4815
2382.00	0.4814
2383.00	0.4814
2384.00	0.4813
2385.00	0.4812
2386.00	0.4810
2387.00	0.4810
2388.00	0.4806
2389.00	0.4806
2390.00	0.4808
2391.00	0.4808
2392.00	0.4801
2393.00	0.4799
2394.00	0.4800
2395.00	0.4797
2396.00	0.4792
2397.00	0.4803
2398.00	0.4802
2399.00	0.4799
2400.00	0.4794
2401.00	0.4792
2402.00	0.4779
2403.00	0.4781
2404.00	0.4777
2405.00	0.4778
2406.00	0.4785
2407.00	0.4786
2408.00	0.4782
2409.00	0.4783
2410.00	0.4784
2411.00	0.4779
2412.00	0.4779
2413.00	0.4778
2414.00	0.4777
2415.00	0.4771
2416.00	0.4773
2417.00	0.4771
2418.00	0.4770
2419.00	0.4771
2420.00	0.4768
2421.00	0.4761
2422.00	0.4759
2423.00	0.4760
2424.00	0.4763
2425.00	0.4764
2426.00	0.4765
2427.00	0.4765
2428.00	0.4758
2429.00	0.4750
2430.00	0.4741
2431.00	0.4745
2432.00	0.4742
2433.00	0.4735
2434.00	0.4737
2435.00	0.4744
2436.00	0.4740
2437.00	0.4745
2438.00	0.4751
2439.00	0.4749
2440.00	0.4746
2441.00	0.4748
2442.00	0.4745
2443.00	0.4749
2444.00	0.4748
2445.00	0.4751
2446.00	0.4746
2447.00	0.4737
2448.00	0.4736
2449.00	0.4733
2450.00	0.4733
2451.00	0.4734
2452.00	0.4737
2453.00	0.4733
2454.00	0.4730
2455.00	0.4730
2456.00	0.4724
2457.00	0.4725
2458.00	0.4727
2459.00	0.4723
2460.00	0.4717
2461.00	0.4718
2462.00	0.4717
2463.00	0.4712
2464.00	0.4710
2465.00	0.4709
2466.00	0.4706
2467.00	0.4703
2468.00	0.4695
2469.00	0.4699
2470.00	0.4702
2471.00	0.4704
2472.00	0.4700
2473.00	0.4704
2474.00	0.4705
2475.00	0.4707
2476.00	0.4699
2477.00	0.4702
2478.00	0.4698
2479.00	0.4695
2480.00	0.4688
2481.00	0.4688
2482.00	0.4681
2483.00	0.4684
2484.00	0.4680
2485.00	0.4676
2486.00	0.4678
2487.00	0.4682
2488.00	0.4682
2489.00	0.4688
2490.00	0.4689
2491.00	0.4691
2492.00	0.4689
2493.00	0.4682
2494.00	0.4674
2495.00	0.4668
2496.00	0.4666
2497.00	0.4664
2498.00	0.4666
2499.00	0.4663
2500.00	0.4668
2501.00	0.4665
2502.00	0.4662
2503.00	0.4658
2504.00	0.4659
2505.00	0.4660
2506.00	0.4660
2507.00	0.4659
2508.00	0.4656
2509.00	0.4656
2510.00	0.4656
2511.00	0.4654
2512.00	0.4654
2513.00	0.4651
2514.00	0.4653
2515.00	0.4654
2516.00	0.4655
2517.00	0.4655
2518.00	0.4654
2519.00	0.4652
2520.00	0.4652
2521.00	0.4648
2522.00	0.4646
2523.00	0.4639
2524.00	0.4635
2525.00	0.4627
2526.00	0.4624
2527.00	0.4618
2528.00	0.4617
2529.00	0.4613
2530.00	0.4614
2531.00	0.4614
2532.00	0.4619
2533.00	0.4618
2534.00	0.4622
2535.00	0.4622
2536.00	0.4621
2537.00	0.4624
2538.00	0.4621
2539.00	0.4617
2540.00	0.4619
2541.00	0.4616
2542.00	0.4615
2543.00	0.4616
2544.00	0.4608
2545.00	0.4606
2546.00	0.4603
2547.00	0.4597
2548.00	0.4596
2549.00	0.4594
2550.00	0.4596
2551.00	0.4598
2552.00	0.4598
2553.00	0.4599
2554.00	0.4599
2555.00	0.4591
2556.00	0.4586
2557.00	0.4585
2558.00	0.4584
2559.00	0.4588
2560.00	0.4589
2561.00	0.4598
2562.00	0.4606
2563.00	0.4606
2564.00	0.4603
2565.00	0.4606
2566.00	0.4604
2567.00	0.4601
2568.00	0.4593
2569.00	0.4594
2570.00	0.4599
2571.00	0.4601
2572.00	0.4602
2573.00	0.4612
2574.00	0.4620
2575.00	0.4629
2576.00	0.4629
2577.00	0.4633
2578.00	0.4631
2579.00	0.4631
2580.00	0.4623
2581.00	0.4616
2582.00	0.4603
2583.00	0.4587
2584.00	0.4575
2585.00	0.4568
2586.00	0.4554
2587.00	0.4549
2588.00	0.4543
2589.00	0.4543
2590.00	0.4553
2591.00	0.4564
2592.00	0.4565
2593.00	0.4576
2594.00	0.4573
2595.00	0.4579
2596.00	0.4578
2597.00	0.4581
2598.00	0.4576
2599.00	0.4578
2600.00	0.4567
2601.00	0.4564
2602.00	0.4553
2603.00	0.4539
2604.00	0.4529
2605.00	0.4520
2606.00	0.4512
2607.00	0.4511
2608.00	0.4514
2609.00	0.4512
2610.00	0.4519
2611.00	0.4522
2612.00	0.4519
2613.00	0.4529
2614.00	0.4533
2615.00	0.4542
2616.00	0.4552
2617.00	0.4556
2618.00	0.4565
2619.00	0.4571
2620.00	0.4562
2621.00	0.4562
2622.00	0.4556
2623.00	0.4552
2624.00	0.4555
2625.00	0.4551
2626.00	0.4549
2627.00	0.4555
2628.00	0.4556
2629.00	0.4553
2630.00	0.4550
2631.00	0.4547
2632.00	0.4537
2633.00	0.4533
2634.00	0.4527
2635.00	0.4523
2636.00	0.4517
2637.00	0.4515
2638.00	0.4512
2639.00	0.4510
2640.00	0.4507
2641.00	0.4504
2642.00	0.4499
2643.00	0.4501
2644.00	0.4502
2645.00	0.4500
2646.00	0.4504
2647.00	0.4507
2648.00	0.4511
2649.00	0.4516
2650.00	0.4516
2651.00	0.4516
2652.00	0.4517
2653.00	0.4520
2654.00	0.4520
2655.00	0.4524
2656.00	0.4519
2657.00	0.4526
2658.00	0.4523
2659.00	0.4522
2660.00	0.4514
2661.00	0.4519
2662.00	0.4506
2663.00	0.4513
2664.00	0.4516
2665.00	0.4512
2666.00	0.4517
2667.00	0.4512
2668.00	0.4505
2669.00	0.4512
2670.00	0.4520
2671.00	0.4528
2672.00	0.4545
2673.00	0.4555
2674.00	0.4586
2675.00	0.4583
2676.00	0.4610
2677.00	0.4622
2678.00	0.4639
2679.00	0.4648
2680.00	0.4665
2681.00	0.4683
2682.00	0.4731
2683.00	0.4758
2684.00	0.4777
2685.00	0.4803
2686.00	0.4853
2687.00	0.4888
2688.00	0.4938
2689.00	0.4985
2690.00	0.5021
2691.00	0.5094
2692.00	0.5166
2693.00	0.5254
2694.00	0.5331
2695.00	0.5415
2696.00	0.5509
2697.00	0.5636
2698.00	0.5715
2699.00	0.5786
2700.00	0.5830
2701.00	0.5908
2702.00	0.5960
2703.00	0.6023
2704.00	0.6103
2705.00	0.6136
2706.00	0.6190
2707.00	0.6250
2708.00	0.6331
2709.00	0.6408
2710.00	0.6469
2711.00	0.6525
2712.00	0.6543
2713.00	0.6631
2714.00	0.6698
2715.00	0.6752
2716.00	0.6820
2717.00	0.6857
2718.00	0.6913
2719.00	0.6908
2720.00	0.6938
2721.00	0.6975
2722.00	0.6979
2723.00	0.7005
2724.00	0.6939
2725.00	0.6922
2726.00	0.6894
2727.00	0.6903
2728.00	0.6889
2729.00	0.6804
2730.00	0.6793
2731.00	0.6778
2732.00	0.6743
2733.00	0.6688
2734.00	0.6671
2735.00	0.6645
2736.00	0.6598
2737.00	0.6539
2738.00	0.6483
2739.00	0.6438
2740.00	0.6432
2741.00	0.6384
2742.00	0.6313
2743.00	0.6246
2744.00	0.6227
2745.00	0.6187
2746.00	0.6166
2747.00	0.6161
2748.00	0.6148
2749.00	0.6102
2750.00	0.6060
2751.00	0.6039
2752.00	0.6026
2753.00	0.5985
2754.00	0.5974
2755.00	0.5945
2756.00	0.5892
2757.00	0.5864
2758.00	0.5838
2759.00	0.5789
2760.00	0.5770
2761.00	0.5737
2762.00	0.5698
2763.00	0.5643
2764.00	0.5616
2765.00	0.5580
2766.00	0.5547
2767.00	0.5511
2768.00	0.5474
2769.00	0.5432
2770.00	0.5408
2771.00	0.5360
2772.00	0.5319
2773.00	0.5285
2774.00	0.5272
2775.00	0.5239
2776.00	0.5200
2777.00	0.5171
2778.00	0.5164
2779.00	0.5134
2780.00	0.5100
2781.00	0.5071
2782.00	0.5065
2783.00	0.5052
2784.00	0.5031
2785.00	0.5005
2786.00	0.5003
2787.00	0.4992
2788.00	0.4969
2789.00	0.4944
2790.00	0.4940
2791.00	0.4924
2792.00	0.4899
2793.00	0.4873
2794.00	0.4857
2795.00	0.4845
2796.00	0.4829
2797.00	0.4807
2798.00	0.4786
2799.00	0.4773
2800.00	0.4762
2801.00	0.4744
2802.00	0.4728
2803.00	0.4720
2804.00	0.4705
2805.00	0.4691
2806.00	0.4673
2807.00	0.4654
2808.00	0.4637
2809.00	0.4627
2810.00	0.4615
2811.00	0.4601
2812.00	0.4588
2813.00	0.4573
2814.00	0.4564
2815.00	0.4553
2816.00	0.4544
2817.00	0.4533
2818.00	0.4526
2819.00	0.4515
2820.00	0.4505
2821.00	0.4492
2822.00	0.4487
2823.00	0.4477
2824.00	0.4470
2825.00	0.4463
2826.00	0.4455
2827.00	0.4442
2828.00	0.4436
2829.00	0.4426
2830.00	0.4422
2831.00	0.4413
2832.00	0.4408
2833.00	0.4396
2834.00	0.4390
2835.00	0.4387
2836.00	0.4380
2837.00	0.4374
2838.00	0.4372
2839.00	0.4368
2840.00	0.4362
2841.00	0.4355
2842.00	0.4349
2843.00	0.4345
2844.00	0.4340
2845.00	0.4335
2846.00	0.4327
2847.00	0.4319
2848.00	0.4312
2849.00	0.4307
2850.00	0.4301
2851.00	0.4297
2852.00	0.4287
2853.00	0.4283
2854.00	0.4275
2855.00	0.4272
2856.00	0.4268
2857.00	0.4263
2858.00	0.4258
2859.00	0.4256
2860.00	0.4252
2861.00	0.4247
2862.00	0.4243
2863.00	0.4241
2864.00	0.4237
2865.00	0.4234
2866.00	0.4233
2867.00	0.4225
2868.00	0.4218
2869.00	0.4219
2870.00	0.4215
2871.00	0.4213
2872.00	0.4212
2873.00	0.4210
2874.00	0.4208
2875.00	0.4203
2876.00	0.4201
2877.00	0.4194
2878.00	0.4192
2879.00	0.4192
2880.00	0.4188
2881.00	0.4183
2882.00	0.4178
2883.00	0.4173
2884.00	0.4169
2885.00	0.4165
2886.00	0.4167
2887.00	0.4164
2888.00	0.4162
2889.00	0.4159
2890.00	0.4153
2891.00	0.4148
2892.00	0.4146
2893.00	0.4141
2894.00	0.4137
2895.00	0.4132
2896.00	0.4128
2897.00	0.4123
2898.00	0.4123
2899.00	0.4121
2900.00	0.4121
2901.00	0.4121
2902.00	0.4120
2903.00	0.4120
2904.00	0.4120
2905.00	0.4116
2906.00	0.4113
2907.00	0.4113
2908.00	0.4107
2909.00	0.4102
2910.00	0.4100
2911.00	0.4091
2912.00	0.4088
2913.00	0.4082
2914.00	0.4078
2915.00	0.4075
2916.00	0.4074
2917.00	0.4073
2918.00	0.4070
2919.00	0.4068
2920.00	0.4069
2921.00	0.4066
2922.00	0.4068
2923.00	0.4064
2924.00	0.4063
2925.00	0.4062
2926.00	0.4060
2927.00	0.4059
2928.00	0.4057
2929.00	0.4057
2930.00	0.4056
2931.00	0.4052
2932.00	0.4049
2933.00	0.4045
2934.00	0.4044
2935.00	0.4044
2936.00	0.4041
2937.00	0.4038
2938.00	0.4037
2939.00	0.4035
2940.00	0.4032
2941.00	0.4030
2942.00	0.4028
2943.00	0.4026
2944.00	0.4024
2945.00	0.4022
2946.00	0.4019
2947.00	0.4016
2948.00	0.4012
2949.00	0.4010
2950.00	0.4006
2951.00	0.4004
2952.00	0.4003
2953.00	0.4000
2954.00	0.3996
2955.00	0.3999
2956.00	0.4001
2957.00	0.3999
2958.00	0.3998
2959.00	0.3996
2960.00	0.3994
2961.00	0.3996
2962.00	0.3997
2963.00	0.3997
2964.00	0.4003
2965.00	0.4002
2966.00	0.4001
2967.00	0.3996
2968.00	0.3996
2969.00	0.3997
2970.00	0.3997
2971.00	0.3996
2972.00	0.3994
2973.00	0.3990
2974.00	0.3986
2975.00	0.3978
2976.00	0.3976
2977.00	0.3973
2978.00	0.3970
2979.00	0.3965
2980.00	0.3963
2981.00	0.3961
2982.00	0.3957
2983.00	0.3956
2984.00	0.3950
2985.00	0.3952
2986.00	0.3950
2987.00	0.3951
2988.00	0.3953
2989.00	0.3953
2990.00	0.3956
2991.00	0.3949
2992.00	0.3948
2993.00	0.3948
2994.00	0.3944
2995.00	0.3943
2996.00	0.3949
2997.00	0.3957
2998.00	0.3958
2999.00	0.3959
3000.00	0.3966
3001.00	0.3974
3002.00	0.3975
3003.00	0.3978
3004.00	0.3980
3005.00	0.3987
3006.00	0.3990
3007.00	0.3993
3008.00	0.3998
3009.00	0.4004
3010.00	0.4002
3011.00	0.3999
3012.00	0.3998
3013.00	0.3997
3014.00	0.3995
3015.00	0.3994
3016.00	0.3993
3017.00	0.3992
3018.00	0.3990
3019.00	0.3990
3020.00	0.3988
3021.00	0.3987
3022.00	0.3985
3023.00	0.3983
3024.00	0.3981
3025.00	0.3981
3026.00	0.3977
3027.00	0.3977
3028.00	0.3977
3029.00	0.3975
3030.00	0.3974
3031.00	0.3974
3032.00	0.3972
3033.00	0.3971
3034.00	0.3970
3035.00	0.3969
3036.00	0.3966
3037.00	0.3965
3038.00	0.3962
3039.00	0.3961
3040.00	0.3960
3041.00	0.3957
3042.00	0.3952
3043.00	0.3950
3044.00	0.3948
3045.00	0.3947
3046.00	0.3946
3047.00	0.3943
3048.00	0.3940
3049.00	0.3938
3050.00	0.3937
3051.00	0.3935
3052.00	0.3935
3053.00	0.3934
3054.00	0.3934
3055.00	0.3932
3056.00	0.3933
3057.00	0.3932
3058.00	0.3933
3059.00	0.3934
3060.00	0.3935
3061.00	0.3933
3062.00	0.3931
3063.00	0.3932
3064.00	0.3931
3065.00	0.3933
3066.00	0.3934
3067.00	0.3933
3068.00	0.3931
3069.00	0.3927
3070.00	0.3930
3071.00	0.3926
3072.00	0.3928
3073.00	0.3923
3074.00	0.3922
3075.00	0.3919
3076.00	0.3916
3077.00	0.3915
3078.00	0.3913
3079.00	0.3914
3080.00	0.3910
3081.00	0.3909
3082.00	0.3901
3083.00	0.3899
3084.00	0.3895
3085.00	0.3893
3086.00	0.3893
3087.00	0.3889
3088.00	0.3890
3089.00	0.3885
3090.00	0.3885
3091.00	0.3884
3092.00	0.3883
3093.00	0.3884
3094.00	0.3880
3095.00	0.3879
3096.00	0.3876
3097.00	0.3873
3098.00	0.3871
3099.00	0.3872
3100.00	0.3873
3101.00	0.3873
3102.00	0.3870
3103.00	0.3866
3104.00	0.3865
3105.00	0.3863
3106.00	0.3862
3107.00	0.3863
3108.00	0.3861
3109.00	0.3860
3110.00	0.3857
3111.00	0.3856
3112.00	0.3854
3113.00	0.3854
3114.00	0.3854
3115.00	0.3853
3116.00	0.3851
3117.00	0.3849
3118.00	0.3845
3119.00	0.3844
3120.00	0.3846
3121.00	0.3844
3122.00	0.3841
3123.00	0.3839
3124.00	0.3836
3125.00	0.3833
3126.00	0.3832
3127.00	0.3829
3128.00	0.3831
3129.00	0.3825
3130.00	0.3821
3131.00	0.3816
3132.00	0.3815
3133.00	0.3813
3134.00	0.3809
3135.00	0.3807
3136.00	0.3805
3137.00	0.3803
3138.00	0.3798
3139.00	0.3797
3140.00	0.3794
3141.00	0.3794
3142.00	0.3793
3143.00	0.3791
3144.00	0.3791
3145.00	0.3789
3146.00	0.3792
3147.00	0.3792
3148.00	0.3793
3149.00	0.3788
3150.00	0.3782
3151.00	0.3781
3152.00	0.3781
3153.00	0.3781
3154.00	0.3783
3155.00	0.3782
3156.00	0.3777
3157.00	0.3779
3158.00	0.3774
3159.00	0.3772
3160.00	0.3769
3161.00	0.3769
3162.00	0.3764
3163.00	0.3764
3164.00	0.3764
3165.00	0.3761
3166.00	0.3763
3167.00	0.3768
3168.00	0.3769
3169.00	0.3767
3170.00	0.3765
3171.00	0.3761
3172.00	0.3764
3173.00	0.3771
3174.00	0.3763
3175.00	0.3771
3176.00	0.3774
3177.00	0.3775
3178.00	0.3775
3179.00	0.3780
3180.00	0.3779
3181.00	0.3777
3182.00	0.3779
3183.00	0.3776
3184.00	0.3773
3185.00	0.3772
3186.00	0.3773
3187.00	0.3772
3188.00	0.3770
3189.00	0.3770
3190.00	0.3769
3191.00	0.3771
3192.00	0.3753
3193.00	0.3757
3194.00	0.3754
3195.00	0.3750
3196.00	0.3738
3197.00	0.3732
3198.00	0.3738
3199.00	0.3735
3200.00	0.3732
3201.00	0.3723
3202.00	0.3722
3203.00	0.3727
3204.00	0.3724
3205.00	0.3721
3206.00	0.3710
3207.00	0.3707
3208.00	0.3703
3209.00	0.3705
3210.00	0.3693
3211.00	0.3682
3212.00	0.3684
3213.00	0.3696
3214.00	0.3695
3215.00	0.3688
3216.00	0.3686
3217.00	0.3694
3218.00	0.3702
3219.00	0.3706
3220.00	0.3694
3221.00	0.3693
3222.00	0.3702
3223.00	0.3714
3224.00	0.3708
3225.00	0.3718
3226.00	0.3714
3227.00	0.3711
3228.00	0.3714
3229.00	0.3718
3230.00	0.3711
3231.00	0.3705
3232.00	0.3697
3233.00	0.3697
3234.00	0.3688
3235.00	0.3683
3236.00	0.3660
3237.00	0.3666
3238.00	0.3672
3239.00	0.3662
3240.00	0.3658
3241.00	0.3653
3242.00	0.3641
3243.00	0.3649
3244.00	0.3652
3245.00	0.3649
3246.00	0.3639
3247.00	0.3631
3248.00	0.3634
3249.00	0.3635
3250.00	0.3640
3251.00	0.3639
3252.00	0.3645
3253.00	0.3653
3254.00	0.3646
3255.00	0.3631
3256.00	0.3637
3257.00	0.3643
3258.00	0.3646
3259.00	0.3659
3260.00	0.3632
3261.00	0.3628
3262.00	0.3625
3263.00	0.3599
3264.00	0.3627
3265.00	0.3633
3266.00	0.3637
3267.00	0.3616
3268.00	0.3585
3269.00	0.3576
3270.00	0.3565
3271.00	0.3547
3272.00	0.3552
3273.00	0.3539
3274.00	0.3543
3275.00	0.3535
3276.00	0.3513
3277.00	0.3510
3278.00	0.3525
3279.00	0.3536
3280.00	0.3572
3281.00	0.3540
3282.00	0.3557
3283.00	0.3547
3284.00	0.3554
3285.00	0.3596
3286.00	0.3608
3287.00	0.3617
3288.00	0.3616
3289.00	0.3620
3290.00	0.3605
3291.00	0.3576
3292.00	0.3589
3293.00	0.3605
3294.00	0.3637
3295.00	0.3630
3296.00	0.3632
3297.00	0.3624
3298.00	0.3639
3299.00	0.3621
3300.00	0.3633
